,net_acc_mean,net_acc_std,net_acc_min,net_acc_max,ACC_x_mean,ACC_x_std,ACC_x_min,ACC_x_max,ACC_y_mean,ACC_y_std,ACC_y_min,ACC_y_max,ACC_z_mean,ACC_z_std,ACC_z_min,ACC_z_max,BVP_mean,BVP_std,BVP_min,BVP_max,EDA_mean,EDA_std,EDA_min,EDA_max,EDA_phasic_mean,EDA_phasic_std,EDA_phasic_min,EDA_phasic_max,EDA_smna_mean,EDA_smna_std,EDA_smna_min,EDA_smna_max,EDA_tonic_mean,EDA_tonic_std,EDA_tonic_min,EDA_tonic_max,Resp_mean,Resp_std,Resp_min,Resp_max,TEMP_mean,TEMP_std,TEMP_min,TEMP_max,BVP_peak_freq,TEMP_slope,0,1,2
0,0.023431264922400007,0.01018551397179093,0.00894469581835927,0.05504428195913397,0.023431253829644033,0.0101855091497968,0.00894469158378939,0.055044255900242395,1.612194914828073e-05,7.008172151445928e-06,6.154423656085595e-06,3.7873376345142124e-05,1.612194914828073e-05,7.008172151445928e-06,6.154423656085595e-06,3.7873376345142124e-05,10.778372881355937,85.84356920760946,-196.54,201.16,0.39672356266844083,0.04665320315162553,0.33703966327376617,0.5230711573642006,0.23204526094153463,0.06306561899380515,0.169478854547509,0.34402019014474805,0.2252534778037408,0.4379587194029179,7.367455978624093e-08,1.7218402157399861,-0.9893704188166931,0.027778387978223268,-1.030284323995732,-0.9408844125694122,0.7611318807812015,2.35168215215235,-3.25775146484375,5.07965087890625,33.252222222222215,0.016178021976180536,33.23,33.29,0.16271186440677965,0.002683178534572018,0,1,0
0,0.023245051503012655,0.010522319776006237,0.003440267622445873,0.04747569318975305,0.023245040498413173,0.010522314794562558,0.0034402659937651497,0.04747567071395907,1.5993824470076914e-05,7.239912352685103e-06,2.3670860215713828e-06,3.2665787097685084e-05,1.5993824470076914e-05,7.239912352685103e-06,2.3670860215713828e-06,3.2665787097685084e-05,1.2343389830508502,68.62060743611966,-200.63,192.58,0.3854440659619178,0.013069719912106452,0.3677553197135773,0.4182578090905498,0.26012894953972376,0.022230334556192798,0.22220940506124787,0.3038272441667707,0.17775949918406778,0.27499673298664434,1.2679088685629836e-06,0.765661477048682,-1.0358557325959876,0.0089352717126107,-1.04451014988079,-1.0135499825913228,-0.4819959919742556,6.051493800590443,-8.2855224609375,8.47930908203125,33.27315789473683,0.0148864585512951,33.25,33.29,0.16271186440677965,-0.0025263157894735554,0,1,0
0,0.02344062619484203,0.003898551333305672,0.00894469581835927,0.028210194504056162,0.02344061509765426,0.0038985494876656937,0.00894469158378939,0.02821018114887423,1.6128390198679573e-05,2.6824094454853717e-06,6.154423656085595e-06,1.941010537688534e-05,1.6128390198679573e-05,2.6824094454853717e-06,6.154423656085595e-06,1.941010537688534e-05,-7.4817006802721195,97.55255524691763,-247.22,199.08,0.3800416817160603,0.006491383405243073,0.3728866679666458,0.3960633421795161,0.1660313921212264,0.03903203085283341,0.09679129297014988,0.22686429266250124,0.0628659211900166,0.14563323292227562,7.833923318933955e-07,0.4945899074447082,-0.9508760041299298,0.03674253012623944,-1.0081397425990812,-0.8896488325013601,-0.24541471495521866,4.194084098877904,-5.3680419921875,7.33795166015625,33.27888888888889,0.009938079899997088,33.27,33.29,0.10884353741496598,0.0009907120743032085,0,1,0
0,0.023815077092523233,0.0014655250651440096,0.022017712783653588,0.027522140979566984,0.023815065818064054,0.0014655243713397232,0.02201770236009696,0.027522127950121197,1.6386032214632924e-05,1.00835873155082e-06,1.514935053805685e-05,1.8936688172571062e-05,1.6386032214632924e-05,1.00835873155082e-06,1.514935053805685e-05,1.8936688172571062e-05,2.866915254237288,23.828308993031683,-48.05,60.29,0.37577008342415213,0.008038196711699069,0.3690091424150614,0.40240072472825034,0.04612946017397074,0.020253241697927703,0.021372245959976877,0.08932717936262799,0.019629217158352225,0.05226087396163159,2.492565093215049e-07,0.20255278968175527,-0.8368487838938493,0.02286078448094238,-0.8826648764017025,-0.8113674006080859,0.8552234166904951,2.0903628463906534,-2.87322998046875,5.33294677734375,33.304736842105264,0.01817123842276993,33.27,33.33,0.18983050847457628,0.00031578947368412276,0,1,0
0,0.020455645322651154,0.0029826797959859935,0.015825231063251018,0.026834087455077812,0.020455635638603562,0.002982678383935061,0.01582522357131969,0.02683407475136817,1.407456553366769e-05,2.052241402918041e-06,1.088859569922836e-05,1.8463270968256787e-05,1.407456553366769e-05,2.052241402918041e-06,1.088859569922836e-05,1.8463270968256787e-05,-0.5209830508474569,49.90221202987187,-138.13,121.99,0.475840504795065,0.07268132234099887,0.3820312903242644,0.6268472448699224,0.17216938018611228,0.09091875471449183,0.03461992669095484,0.2826928937384974,0.1972881778329858,0.45946838896171555,4.71064520723985e-08,1.6673285217622553,-0.8293602159007696,0.014454575467253369,-0.8566820101771034,-0.8115242330555189,0.8651316776210538,2.9830428760847028,-3.54461669921875,5.133056640625,33.316666666666684,0.016996731711976593,33.29,33.34,0.08135593220338982,0.002848297213622289,0,1,0
0,0.020576076827581013,0.00021733479775354247,0.019953552210186066,0.021329659259164413,0.020576067086519146,0.00021733469486358281,0.01995354276383787,0.02132964916134393,1.4157428776636472e-05,1.4953783200090294e-07,1.372909892511402e-05,1.4675933333742575e-05,1.4157428776636472e-05,1.4953783200090294e-07,1.372909892511402e-05,1.4675933333742575e-05,0.2370169491525419,13.564086501745388,-31.43,21.02,0.44372076147794454,0.010051085984624213,0.42918014034353696,0.4635464304783701,0.1877198176561531,0.002820652380792424,0.18265164474485615,0.19234883218508878,0.14307334165489152,0.12291127625482572,4.379560606482258e-05,0.4295845051749412,-0.8895018403061096,0.015749289774298087,-0.9102387305059226,-0.8606052677515843,-0.26806326264592384,2.664496019265208,-4.107666015625,4.376220703125,33.31111111111112,0.014098419489387915,33.29,33.33,0.16271186440677965,0.000970072239422009,0,1,0
0,0.020590118736244063,0.00021367501661018515,0.019953552210186066,0.021329659259164413,0.020590108988534507,0.00021367491545282904,0.01995354276383787,0.02132964916134393,1.4167090352234726e-05,1.4701970907060208e-07,1.372909892511402e-05,1.4675933333742575e-05,1.4167090352234726e-05,1.4701970907060208e-07,1.372909892511402e-05,1.4675933333742575e-05,5.28986394557823,24.543647168015188,-32.71,118.47,0.42451963553661487,0.0022232900813498845,0.42091556112622996,0.42783254905336116,0.17461098234705663,0.012309247516679908,0.15046555015761484,0.1882039427950474,0.11163039789618864,0.0709266608906428,1.1050830499126363e-05,0.24019417214874972,-0.901513678536282,0.009660080830152155,-0.911450744560851,-0.881549621791711,-0.3065890526586725,2.3488328252844104,-3.17840576171875,4.345703125,33.318421052631564,0.009874559494363147,33.31,33.33,0.19047619047619047,0.0004210526315788636,0,1,0
0,0.024133012470427737,0.010513667671007516,0.00894469581835927,0.053668174910155624,0.024133001045452563,0.010513662693659895,0.00894469158378939,0.05366814950273634,1.6604788564833842e-05,7.233959246983092e-06,6.154423656085595e-06,3.6926541936513574e-05,1.6604788564833842e-05,7.233959246983092e-06,6.154423656085595e-06,3.6926541936513574e-05,-10.604711864406761,110.32082956434128,-264.71,229.13,0.3956821084528277,0.010735435744208082,0.38103039336601896,0.41736487437377523,0.08436364889622465,0.0316673150337586,0.03783241774645398,0.14139062738601568,0.018934439586872392,0.05549917049412462,1.6458467788638131e-07,0.23787486650157597,-0.8493290786746857,0.017664288042135306,-0.878347153088393,-0.8213174187281129,0.6958997290289036,2.847751408800724,-3.839111328125,5.01556396484375,33.33,0.0,33.33,33.33,0.05423728813559322,0.0,0,1,0
0,0.024044428267352987,0.012563050834831769,0.008256642293870096,0.04678763966526387,0.02404441688431506,0.012563044887271576,0.00825663838503636,0.04678761751520604,1.654383794940434e-05,8.644043220765107e-06,5.681006451771319e-06,3.219236989337081e-05,1.654383794940434e-05,8.644043220765107e-06,5.681006451771319e-06,3.219236989337081e-05,3.9441016949152594,120.65097615256134,-211.67,272.99,0.3782635100097723,0.0046110167543379895,0.37012125084722286,0.38553157616552536,0.016319989515667953,0.007147362194469836,0.009760413308692142,0.033782744436306425,0.0040061978395284185,0.016985044711600086,1.3928293107756673e-07,0.07606763707785083,-0.8014415347903013,0.008594514275163459,-0.8185145557690982,-0.7904156828686573,-0.1728389162579482,2.257833126692104,-3.03192138671875,4.132080078125,33.31368421052631,0.015630781478860312,33.29,33.34,0.10847457627118644,-0.0006842105263154663,0,1,0
0,0.021794560289224624,0.0007554892065655626,0.01926549868569689,0.024081873357121114,0.021794549971312187,0.0007554888489042274,0.01926548956508484,0.02408186195635605,1.4995809823144127e-05,5.198165191107983e-07,1.3255681720799745e-05,1.656960215099968e-05,1.4995809823144127e-05,5.198165191107983e-07,1.3255681720799745e-05,1.656960215099968e-05,-1.5829830508474563,41.33981536185489,-119.03,146.41,0.3799485512995392,0.0037215856008197064,0.3742110588499701,0.38740464108623185,0.004183591331684527,0.0023992761027848515,0.0014767353592181976,0.009195462007680481,0.0001656382691679888,0.0006727416928768312,1.7896142057161057e-07,0.002939302626272386,-0.7882777612815232,0.0005848332107424036,-0.7898491698807961,-0.7877121273795475,-0.41614595200754345,2.1658633415272237,-3.24554443359375,3.7689208984375,33.33055555555555,0.010258991840344607,33.31,33.34,0.08135593220338982,-0.001393188854489217,0,1,0
0,0.020955208361483194,0.0003426788367019912,0.020641605734675238,0.021329659259164413,0.020955198440934072,0.0003426786744720506,0.020641595962590898,0.02132964916134393,1.4418291317789227e-05,2.357811581149424e-07,1.4202516129428297e-05,1.4675933333742575e-05,1.4418291317789227e-05,2.357811581149424e-07,1.4202516129428297e-05,1.4675933333742575e-05,2.6237755102040814,12.157738655478267,-28.03,24.76,0.3773255769316426,0.0011017442152813281,0.3749373787956149,0.3791195333839404,0.0015903003974815826,0.00046798104530059717,0.0007912945222224887,0.0021130415573201488,0.0020423474542701553,0.005360497103123699,1.0915615685641589e-06,0.01807823905565756,-0.7898912698906462,0.0005231110982618498,-0.7904151794939213,-0.7887691720669231,0.0339847535125969,2.625500137515667,-3.71856689453125,4.47540283203125,33.33105263157895,0.006402907926630523,33.31,33.34,0.19047619047619047,0.00014035087719282984,0,1,0
0,0.020814789274852752,0.00035750992377680515,0.020641605734675238,0.022017712783653588,0.02081477942078043,0.0003575097545255774,0.020641595962590898,0.02201770236009696,1.432167556180673e-05,2.4598573018673404e-07,1.4202516129428297e-05,1.514935053805685e-05,1.432167556180673e-05,2.4598573018673404e-07,1.4202516129428297e-05,1.514935053805685e-05,0.002508474576271368,12.525889222973326,-29.01,19.33,0.37765186539856943,0.0006518464841421969,0.37615801302981544,0.37876637054457796,0.001606161719832339,0.0007032608021412435,0.0005782231953034495,0.002594237751304423,2.6115529932354627e-05,3.8562801566675286e-05,4.4820778025492225e-07,0.000143225141741872,-0.78995282797404,0.000349248706091073,-0.7904005472282023,-0.7892998167000874,0.8143316985582144,2.5158187615882985,-2.96478271484375,4.59136962890625,33.32333333333334,0.012472191289246098,33.31,33.34,0.18983050847457628,0.0015686274509804908,0,1,0
0,0.02387731690389458,0.002744601810542833,0.015825231063251018,0.03096240860201286,0.023877305599970013,0.0027446005112020397,0.01582522357131969,0.03096239394388635,1.6428856495662997e-05,1.8884311610317627e-06,1.088859569922836e-05,2.1303774194142445e-05,1.6428856495662997e-05,1.8884311610317627e-06,1.088859569922836e-05,2.1303774194142445e-05,-4.521898305084748,53.336328934348764,-168.85,106.85,0.3768489236887588,0.0022576937754206993,0.3739044014698893,0.38135350804550716,0.00021750029139649553,0.00013478554430623382,6.176223319420622e-05,0.0005114505289464945,3.155832562601502e-07,1.4806015435617404e-07,1.607698239215402e-07,6.01505142164456e-07,-0.788474042874372,0.0004204484699474291,-0.7892066644566391,-0.7878416277663058,2.330228714997673,4.833209574432884,-7.51800537109375,11.72332763671875,33.32333333333333,0.009428090415818758,33.31,33.33,0.10847457627118644,-0.00016511867905053473,0,1,0
0,0.019747604216461392,0.0014566332438267532,0.015825231063251018,0.022705766308142764,0.01974759486761248,0.001456632554232004,0.01582522357131969,0.022705755558849988,1.358739581633969e-05,1.0022406883471278e-06,1.088859569922836e-05,1.5622767742371126e-05,1.358739581633969e-05,1.0022406883471278e-06,1.088859569922836e-05,1.5622767742371126e-05,8.382203389830506,36.72560163081162,-69.27,86.69,0.380151443466449,0.004812619842387184,0.3743050267593296,0.38977633629964153,0.0042305993142948495,0.0029939136481382032,3.327852060747954e-05,0.007885281984981219,0.004516301368411033,0.017628816608897268,2.3453389877414743e-07,0.0790349983129283,-0.787411515134992,0.0001899140491930104,-0.7877833025807199,-0.7871687684537674,-1.8737348078498177,7.6225225739485065,-12.84332275390625,11.34796142578125,33.323684210526324,0.00929659038560641,33.31,33.33,0.08135593220338982,0.0008070175438594885,0,1,0
0,0.0199535522101861,3.469446951953614e-17,0.019953552210186066,0.019953552210186066,0.01995354276383787,0.0,0.01995354276383787,0.01995354276383787,1.3729098925114043e-05,2.371692252312041e-20,1.372909892511402e-05,1.372909892511402e-05,1.3729098925114043e-05,2.371692252312041e-20,1.372909892511402e-05,1.372909892511402e-05,-4.8114285714285705,27.24962634706065,-103.33,66.44,0.3791697467858405,0.0012215448293905716,0.3768880298076714,0.38174882744986477,0.0016012834828932235,0.0009270645156196835,0.0006182404407087747,0.0036321120166847663,0.0001034489046598108,0.0004138557936954479,8.924182777272915e-07,0.0018097762600985529,-0.7872031683793845,6.662742409436325e-05,-0.7873531251874797,-0.7871423026822724,-1.4951871583242866,1.86788597712616,-4.351806640625,4.73480224609375,33.32555555555555,0.008314794192829328,33.31,33.33,0.13605442176870747,-0.0006604747162021389,0,1,0
0,0.019939605179284295,9.69627974904406e-05,0.01926549868569689,0.019953552210186066,0.01993959573953882,9.696275158661641e-05,0.01926548956508484,0.01995354276383787,1.3719502630431995e-05,6.67155313890667e-08,1.3255681720799745e-05,1.372909892511402e-05,1.3719502630431995e-05,6.67155313890667e-08,1.3255681720799745e-05,1.372909892511402e-05,-0.20033898305084774,10.316453793244138,-24.19,21.06,0.3780821644990171,0.0010339824911423077,0.3762883342192448,0.3805198326731248,0.0003566675343752397,0.00011708964211413761,0.00020218108045007212,0.0005668560213447764,0.0001729806094197972,0.0004539637865871556,6.09125156057766e-07,0.0018590251538779068,-0.7877005971212018,0.00019863654140636028,-0.7880248439805324,-0.7873832054713674,0.7984525808329618,0.7780417247295117,-0.45013427734375,2.83355712890625,33.3342105263158,0.004937279747185083,33.33,33.34,0.18983050847457628,0.0004912280701756899,0,1,0
0,0.01996291348262813,7.970836264601028e-05,0.019953552210186066,0.020641605734675238,0.019962904031848114,7.970832491072707e-05,0.01995354276383787,0.020641595962590898,1.3735539975512876e-05,5.4843567922071684e-08,1.372909892511402e-05,1.4202516129428297e-05,1.3735539975512876e-05,5.4843567922071684e-08,1.372909892511402e-05,1.4202516129428297e-05,0.313186440677967,10.184001744967992,-24.55,18.06,0.3771989729626877,0.0011683833419749217,0.37544588788069455,0.3800906484675511,0.00013436337616427047,7.265663174595491e-05,4.219460870931965e-05,0.0002712551576503358,3.487306237326038e-07,5.2594477641351064e-08,2.779030920487587e-07,4.545075517458502e-07,-0.7882402803659834,8.650645560336995e-05,-0.7883250378361796,-0.7880574781659971,0.47252204083079624,2.3600130104380037,-3.00445556640625,4.51507568359375,33.33000000000001,0.011547005383792953,33.31,33.34,0.18983050847457628,0.0016511867905059342,0,1,0
0,0.020046532416198144,0.00023522338264780754,0.019953552210186066,0.020641605734675238,0.02004652292583154,0.00023522327128909122,0.01995354276383787,0.020641595962590898,1.3793074222994345e-05,1.618461242316114e-07,1.372909892511402e-05,1.4202516129428297e-05,1.3793074222994345e-05,1.618461242316114e-07,1.372909892511402e-05,1.4202516129428297e-05,1.1323728813559322,10.852888194671696,-24.63,18.75,0.3766244029812209,0.0008254787056241783,0.37519508495353876,0.378132394999731,1.546321671007206e-05,9.768509968737439e-06,4.531155070572559e-06,3.7307467519008316e-05,5.145622480538374e-07,2.3168132324674356e-07,2.6581670577922965e-07,1.2176953213123126e-06,-0.7881696320473467,9.829600744640853e-05,-0.7883112895804552,-0.7880037791430644,-0.5039465930266652,2.868723845287966,-3.70941162109375,5.02777099609375,33.3363157894737,0.004823763889429668,33.33,33.34,0.18983050847457628,0.00010526315789479069,0,1,0
0,0.0199535522101861,3.469446951953614e-17,0.019953552210186066,0.019953552210186066,0.01995354276383787,0.0,0.01995354276383787,0.01995354276383787,1.3729098925114043e-05,2.371692252312041e-20,1.372909892511402e-05,1.372909892511402e-05,1.3729098925114043e-05,2.371692252312041e-20,1.372909892511402e-05,1.372909892511402e-05,-1.0197959183673468,11.568979309830047,-24.57,30.17,0.3774380332218678,0.0013437780399591641,0.3750895020184541,0.3794973279646308,0.00013542066775952107,6.825805487297825e-05,4.1426159382855695e-06,0.00021879679642954885,0.00013191847018307826,0.000532127008354358,5.706822376314903e-07,0.002325781887287714,-0.7879619258127488,3.943692971181635e-05,-0.7880646432226773,-0.7879229035823939,0.07773747219341269,1.6047751889091741,-2.3468017578125,3.021240234375,33.33444444444445,0.004969039950002075,33.33,33.34,0.19047619047619047,0.00033023735810130413,0,1,0
0,0.023978899360258776,0.0059893674209568,0.019953552210186066,0.04197126499383966,0.02397888800824331,0.005989364585489231,0.01995354276383787,0.04197124512393483,1.6498750596612534e-05,4.12100146154398e-06,1.372909892511402e-05,2.8878449463170872e-05,1.6498750596612534e-05,4.12100146154398e-06,1.372909892511402e-05,2.8878449463170872e-05,-0.9475593220339036,47.83645328821561,-137.92,124.67,0.3829549974116798,0.008278240360963533,0.37515440743983014,0.4010919110737944,0.0068600467591516685,0.008485145073817415,5.653438699832269e-05,0.020580772703540497,0.012651701877523909,0.03450264324039232,1.6613251374586469e-07,0.11800640481604045,-0.7885299555876243,0.00028664076120902513,-0.7890182848466146,-0.7880993474737928,0.4628422021348026,1.4195238016067788,-1.580810546875,2.94342041015625,33.33444444444445,0.004969039950002075,33.33,33.34,0.08135593220338982,-0.00033023735810130413,0,1,0
0,0.023272945564816242,0.008447644455045804,0.007568588769380921,0.05022790728770975,0.02327293454701128,0.008447640455788418,0.00756858518628333,0.050227883508971186,1.601301705944101e-05,5.812426037520722e-06,5.2075892474570424e-06,3.455945591494219e-05,1.601301705944101e-05,5.812426037520722e-06,5.2075892474570424e-06,3.455945591494219e-05,1.9012542372881303,157.93021254774547,-324.07,474.78,0.3817004380202349,0.003685049830141584,0.37661951872030613,0.3912803911529584,0.008212870705574978,0.00488776120437563,0.0022920967060891546,0.01805457369291254,4.312058164632204e-07,2.3078701598587275e-07,1.7022465692573263e-07,9.107720509160533e-07,-0.7894424704747958,0.000177917494979152,-0.7896249988521712,-0.7890759077877195,-0.3291104035105362,1.8856274361183587,-2.947998046875,3.570556640625,33.32578947368421,0.008153649149908732,33.31,33.33,0.16271186440677965,0.0009122807017542045,0,1,0
0,0.021961545149001345,0.00018839197382646277,0.021329659259164413,0.022017712783653588,0.021961534752035546,0.00018839188463852448,0.02132964916134393,0.02201770236009696,1.5110704235663819e-05,1.2962363884464805e-07,1.4675933333742575e-05,1.514935053805685e-05,1.5110704235663819e-05,1.2962363884464805e-07,1.4675933333742575e-05,1.514935053805685e-05,-0.8813265306122455,20.17895969138923,-68.21,43.64,0.3769051668549148,0.001485179319139232,0.3743355162536864,0.3792838266272977,0.001063896310098809,0.0003772584358182013,0.0007229494259946589,0.0020235524064709603,0.00034424643682512055,0.0010254399238898474,4.819688541948808e-07,0.00420778796850182,-0.7891463272873933,0.0003508458413325294,-0.7895972036825089,-0.788482530823139,0.6187107663592393,1.9814704515829602,-2.40936279296875,4.3243408203125,33.33666666666668,0.0047140452079127305,33.33,33.34,0.19047619047619047,0.0007430340557279344,0,1,0
0,0.02201771278365352,6.938893903907228e-17,0.022017712783653588,0.022017712783653588,0.02201770236009702,5.898059818321144e-17,0.02201770236009696,0.02201770236009696,1.5149350538056818e-05,3.218725199566341e-20,1.514935053805685e-05,1.514935053805685e-05,1.5149350538056818e-05,3.218725199566341e-20,1.514935053805685e-05,1.514935053805685e-05,-0.1783728813559324,11.862132688886774,-26.68,22.31,0.3785368398503029,0.0009459139248937933,0.37664529011303244,0.3800239302738273,0.0005331995993891288,0.00019868487912605442,0.00020536601104674242,0.0007985143618484789,0.00022504341770568248,0.0009429300714372683,2.9415343035833763e-07,0.004225518615987361,-0.7874476910868681,0.0005653673301357136,-0.788383044904518,-0.7865493625397445,-0.384690921300694,1.8178582476801657,-2.5909423828125,3.59649658203125,33.3321052631579,0.004076824574957261,33.33,33.34,0.21694915254237288,0.0003157894736843721,0,1,0
0,0.022031659814555328,9.696279749044068e-05,0.022017712783653588,0.022705766308142764,0.022031649384396067,9.69627515866165e-05,0.02201770236009696,0.022705755558849988,1.5158946832738865e-05,6.671553138906658e-08,1.514935053805685e-05,1.5622767742371126e-05,1.5158946832738865e-05,6.671553138906658e-08,1.514935053805685e-05,1.5622767742371126e-05,-0.200474576271186,11.958845805307309,-31.13,19.31,0.3784620247671387,0.0010725998883523023,0.37581329615921294,0.37987189288628814,7.752499041964224e-05,4.7766851467364406e-05,2.2376773904290083e-05,0.0001817296036396514,4.351620915968156e-07,1.0402697724400583e-07,2.939684261124738e-07,5.815680857630418e-07,-0.7859577085913156,0.00025675673512294073,-0.7864636703493589,-0.7856252755629582,-0.06244078283164947,2.3442768799866522,-3.43170166015625,4.55474853515625,33.32777777777778,0.010304020550550604,33.31,33.34,0.21694915254237288,-0.0004953560371517216,0,1,0
0,0.02201771278365352,6.938893903907228e-17,0.022017712783653588,0.022017712783653588,0.02201770236009702,5.898059818321144e-17,0.02201770236009696,0.02201770236009696,1.5149350538056818e-05,3.218725199566341e-20,1.514935053805685e-05,1.514935053805685e-05,1.5149350538056818e-05,3.218725199566341e-20,1.514935053805685e-05,1.514935053805685e-05,0.7753559322033888,11.696381062450815,-25.0,22.28,0.37883696957067126,0.0012795885035451007,0.37589735357459697,0.38059646874101893,9.043365166990192e-06,4.722684364517701e-06,4.514462306732683e-06,1.9810445547610472e-05,1.528703822608747e-06,1.6614009696254442e-06,3.067596257256774e-07,6.057849964407992e-06,-0.785498143060571,5.75186674238271e-05,-0.7856051689172606,-0.7854036234890761,0.4200494182135724,1.9045984968497502,-2.24761962890625,3.70025634765625,33.32555555555555,0.008314794192829328,33.31,33.33,0.21694915254237288,0.0,0,1,0
0,0.02201771278365352,6.938893903907228e-17,0.022017712783653588,0.022017712783653588,0.02201770236009702,5.898059818321144e-17,0.02201770236009696,0.02201770236009696,1.5149350538056818e-05,3.218725199566341e-20,1.514935053805685e-05,1.514935053805685e-05,1.5149350538056818e-05,3.218725199566341e-20,1.514935053805685e-05,1.514935053805685e-05,-0.13564625850340076,12.204003863348929,-25.94,19.23,0.3796656613805559,0.0007986198918138797,0.37823949156766484,0.381179403558561,2.6884878150365733e-06,8.448821698926113e-07,1.511439833092393e-06,4.29700255307225e-06,9.146641572539616e-07,2.992221458721304e-07,5.861363745727952e-07,1.5843563507990653e-06,-0.7851144724242168,0.00020882742328487424,-0.7853884825742646,-0.7847185170526824,-0.3912093288214632,1.9679871992256017,-2.66265869140625,3.81011962890625,33.32578947368421,0.00815364914990873,33.31,33.33,0.21768707482993196,-0.0002105263157894318,0,1,0
0,0.02201771278365352,6.938893903907228e-17,0.022017712783653588,0.022017712783653588,0.02201770236009702,5.898059818321144e-17,0.02201770236009696,0.02201770236009696,1.5149350538056818e-05,3.218725199566341e-20,1.514935053805685e-05,1.514935053805685e-05,1.5149350538056818e-05,3.218725199566341e-20,1.514935053805685e-05,1.514935053805685e-05,-0.7568474576271184,11.78005725981531,-27.6,20.97,0.3800102293190572,0.0005598268998129984,0.3788540315554244,0.38102257906534304,9.811169309506007e-07,2.257953081404622e-07,7.18673467429547e-07,1.4347864940021e-06,4.783150247669006e-07,5.974762436697147e-08,3.945465470584247e-07,6.491363653143415e-07,-0.784256650702189,0.0002248938719984422,-0.7846642435795373,-0.783952297202819,0.5594341717186531,2.0789359547799933,-2.716064453125,3.58428955078125,33.316666666666656,0.00942809041581876,33.31,33.33,0.21694915254237288,-0.0008255933952526737,0,1,0
0,0.023272123290885554,0.0012580031649771606,0.022017712783653588,0.026146033930588636,0.02327211227346982,0.00125800256941724,0.02201770236009696,0.02614602155261514,1.6012451291500563e-05,8.65572691927063e-07,1.514935053805685e-05,1.7989853763942512e-05,1.6012451291500563e-05,8.65572691927063e-07,1.514935053805685e-05,1.7989853763942512e-05,-2.196033898305082,48.29168647474554,-153.69,108.25,0.37997437379950094,0.0011377567570241083,0.3784056906704778,0.3820554304308812,6.848276197729375e-07,6.545829841903114e-08,5.953419766836541e-07,7.67316988632621e-07,4.837289327310599e-07,1.4203054368063064e-07,3.0454779781257465e-07,7.986756702605487e-07,-0.7841865693921434,0.00027418763330236374,-0.7847921876265416,-0.7839276711703248,-0.06610169895825256,2.0658969757990726,-3.533935546875,4.19158935546875,33.314210526315776,0.015326547135326718,33.29,33.33,0.08135593220338982,-0.0016140350877192013,0,1,0
0,0.024044681274716272,0.00020832546633673475,0.023393819832631935,0.02476992688161029,0.024044669891558523,0.00020832536771194342,0.02339380875760302,0.02476991515510908,1.6544012031847598e-05,1.4333893563560427e-07,1.6096184946685404e-05,1.7043019355313955e-05,1.6544012031847598e-05,1.4333893563560427e-07,1.6096184946685404e-05,1.7043019355313955e-05,2.0603728813559314,15.067728367807941,-30.16,39.3,0.3788458537987148,0.00100495780470296,0.37709469942831253,0.3801310338472872,0.00021018602094210738,0.000368803258747376,6.066592820592374e-07,0.0014232683697968985,0.0011283381088814614,0.004005582930008313,5.79979299599042e-07,0.017570151673345465,-0.7860852385490749,0.0007645967052718773,-0.7873855049791553,-0.7849048724155205,-0.24778322887982857,2.0366872135606418,-3.91082763671875,3.76739501953125,33.31444444444443,0.008314794192829326,33.31,33.33,0.21694915254237288,-0.0009907120743032085,0,1,0
0,0.029675233641233808,0.008263376585743599,0.015137177538761842,0.053668174910155624,0.029675219592477573,0.008263372673721747,0.01513717037256666,0.05366814950273634,2.0418129764302822e-05,5.685640000642617e-06,1.0415178494914085e-05,3.6926541936513574e-05,2.0418129764302822e-05,5.685640000642617e-06,1.0415178494914085e-05,3.6926541936513574e-05,3.766972789115647,95.1327386083346,-228.88,192.97,0.37930360735752644,0.0028962827496400887,0.3722069538541029,0.3837688669815085,0.002962308837568224,0.0010832729290056458,0.001330025811436267,0.004560520821111658,0.001771003957666416,0.007502682444464996,1.5535335046168441e-07,0.03360218196296553,-0.7888744347602433,0.0007645559512251361,-0.790029149558373,-0.7875457972388139,0.6236278918362403,2.1645983100815767,-2.87933349609375,4.132080078125,33.314210526315776,0.01532654713532672,33.29,33.33,0.10884353741496598,-0.0017543859649123057,0,1,0
0,0.02683408745507785,3.8163916471489756e-17,0.026834087455077812,0.026834087455077812,0.02683407475136821,4.163336342344337e-17,0.02683407475136817,0.02683407475136817,1.8463270968256763e-05,2.371692252312041e-20,1.8463270968256787e-05,1.8463270968256787e-05,1.8463270968256763e-05,2.371692252312041e-20,1.8463270968256787e-05,1.8463270968256787e-05,-3.020406779661021,11.868490651426779,-32.81,18.21,0.3746841861673835,0.001375324708609282,0.3724297206396574,0.37745620709604666,0.0005540154898652933,0.0002811917113553324,0.00020758735135288317,0.0011775153967420059,0.00042763774659629615,0.0017508601936289043,2.785886006086147e-07,0.0076465824636114035,-0.7907221572114469,0.0003082463338581254,-0.7911293025795693,-0.790127423164616,-0.4744541264083346,1.596252866448475,-2.76641845703125,3.03497314453125,33.33,0.0,33.33,33.33,0.21694915254237288,0.0,0,1,0
0,0.02683408745507785,3.8163916471489756e-17,0.026834087455077812,0.026834087455077812,0.02683407475136821,4.163336342344337e-17,0.02683407475136817,0.02683407475136817,1.8463270968256763e-05,2.371692252312041e-20,1.8463270968256787e-05,1.8463270968256787e-05,1.8463270968256763e-05,2.371692252312041e-20,1.8463270968256787e-05,1.8463270968256787e-05,-0.23938983050847557,12.2473539017126,-27.17,25.45,0.37555017197515156,0.0009336277297367224,0.3736258878048069,0.3774885301844016,0.0004911563396329187,0.0002222634092587558,0.00017240132920445377,0.0008121237056087431,9.985718428257008e-07,5.427592568056942e-07,4.796955317626708e-07,2.0016411355523733e-06,-0.7911860349029981,3.9389775258710545e-05,-0.7912274577117351,-0.7910914477982436,0.5931535863447293,1.4029535457109714,-1.56707763671875,3.47747802734375,33.32111111111111,0.00993807989999709,33.31,33.33,0.21694915254237288,0.0009907120743032085,0,1,0
0,0.02683408745507785,3.8163916471489756e-17,0.026834087455077812,0.026834087455077812,0.02683407475136821,4.163336342344337e-17,0.02683407475136817,0.02683407475136817,1.8463270968256763e-05,2.371692252312041e-20,1.8463270968256787e-05,1.8463270968256787e-05,1.8463270968256763e-05,2.371692252312041e-20,1.8463270968256787e-05,1.8463270968256787e-05,0.5638983050847461,12.121502622206808,-24.42,22.11,0.3750981390273255,0.0013264509405397594,0.37322353774978073,0.3775612779878024,6.25987016901902e-05,4.042585660564672e-05,1.681860333905666e-05,0.00015248824405828128,6.056945919101237e-07,1.1198378378995412e-07,4.7575103315016486e-07,8.458396865886758e-07,-0.7907188113199848,0.0002338611721464545,-0.7910646009265517,-0.7903053083226275,-0.261526368096212,1.8923552191448847,-3.00445556640625,3.34930419921875,33.32684210526315,0.007292845505551717,33.31,33.33,0.21694915254237288,-0.0008421052631577272,0,1,0
0,0.02683408745507785,3.8163916471489756e-17,0.026834087455077812,0.026834087455077812,0.02683407475136821,4.163336342344337e-17,0.02683407475136817,0.02683407475136817,1.8463270968256763e-05,2.371692252312041e-20,1.8463270968256787e-05,1.8463270968256787e-05,1.8463270968256763e-05,2.371692252312041e-20,1.8463270968256787e-05,1.8463270968256787e-05,-1.025340136054422,13.298017999214649,-30.19,20.7,0.37592577433064245,0.000908000202080586,0.3741633100573466,0.3774572568962764,6.6745433470707035e-06,3.806999649207721e-06,2.2381011694286437e-06,1.4939122712847947e-05,4.005130641737123e-07,9.402049065580322e-08,2.9991014082052274e-07,6.78117307385481e-07,-0.7898039374761741,0.0002724056567544583,-0.7902532348935825,-0.7893665608468277,-0.23900687546647217,1.2986259840931853,-2.36968994140625,2.56500244140625,33.323333333333316,0.009428090415818758,33.31,33.33,0.19047619047619047,-0.0009907120743032085,0,1,0
0,0.02683408745507785,3.8163916471489756e-17,0.026834087455077812,0.026834087455077812,0.02683407475136821,4.163336342344337e-17,0.02683407475136817,0.02683407475136817,1.8463270968256763e-05,2.371692252312041e-20,1.8463270968256787e-05,1.8463270968256787e-05,1.8463270968256763e-05,2.371692252312041e-20,1.8463270968256787e-05,1.8463270968256787e-05,0.5534576271186451,14.247951583157525,-29.49,27.16,0.376179680445665,0.0011374445714733173,0.37417941974499297,0.3779132337514901,3.0462261506745126e-05,6.54072438670831e-05,1.2633938013858024e-06,0.00022582967680850687,0.0001414066334792962,0.0005774746856481653,3.0703104075825683e-07,0.002591238354894485,-0.788955358909484,0.00020790838904955709,-0.7893192206718661,-0.788631558802145,0.4697269600615016,2.1056127592547003,-3.36151123046875,3.3721923828125,33.318421052631585,0.009874559494363151,33.31,33.33,0.21694915254237288,0.0009824561403506816,0,1,0
0,0.026838768091298863,5.6556342644193535e-05,0.026834087455077812,0.027522140979566984,0.02683875538537333,5.655631586946693e-05,0.02683407475136817,0.027522127950121197,1.846649149345618e-05,3.891375404367347e-08,1.8463270968256787e-05,1.8936688172571062e-05,1.846649149345618e-05,3.891375404367347e-08,1.8463270968256787e-05,1.8936688172571062e-05,0.5036610169491523,13.300360775800272,-27.39,27.76,0.3775251586867729,0.0006746418686863215,0.3761198287413168,0.37860865807335997,0.00014582020047673218,6.766562179970042e-05,5.080816173493433e-05,0.0002468404291594391,3.344842681598283e-06,7.338672660780528e-06,4.568035903009882e-07,3.280659146504949e-05,-0.7883122790046068,0.000179596149752183,-0.788598737676447,-0.7880060126246528,-0.19627262485940894,1.5999041295808714,-2.76641845703125,3.16009521484375,33.33000000000001,0.011547005383792951,33.31,33.34,0.21694915254237288,-3.5197163381305274e-16,0,1,0
0,0.02683408745507785,3.8163916471489756e-17,0.026834087455077812,0.026834087455077812,0.02683407475136821,4.163336342344337e-17,0.02683407475136817,0.02683407475136817,1.8463270968256763e-05,2.371692252312041e-20,1.8463270968256787e-05,1.8463270968256787e-05,1.8463270968256763e-05,2.371692252312041e-20,1.8463270968256787e-05,1.8463270968256787e-05,-0.10342372881355913,12.083248110017875,-24.94,21.43,0.37747094703698997,0.0015958850919751309,0.3740067441026778,0.37989239435475497,1.8609969261173527e-05,1.1869853674525874e-05,5.182640998591851e-06,4.499286896278618e-05,3.3487231065590414e-07,7.515717694883371e-08,2.3995960714685936e-07,4.980006001093526e-07,-0.787546548785364,0.00026120208171177725,-0.7879653266736742,-0.7871296262477425,0.3326827775751687,2.265710443500409,-2.90679931640625,4.18243408203125,33.32789473684211,0.010041465278072917,33.31,33.34,0.21694915254237288,0.0003859649122807496,0,1,0
0,0.02683408745507785,3.8163916471489756e-17,0.026834087455077812,0.026834087455077812,0.02683407475136821,4.163336342344337e-17,0.02683407475136817,0.02683407475136817,1.8463270968256763e-05,2.371692252312041e-20,1.8463270968256787e-05,1.8463270968256787e-05,1.8463270968256763e-05,2.371692252312041e-20,1.8463270968256787e-05,1.8463270968256787e-05,-1.225952380952381,13.021693109573322,-28.16,25.58,0.3774793322952622,0.0012566834869009516,0.3741463447387446,0.3793569648402532,4.70249851358093e-05,0.00011788017710271859,1.6190746613077705e-06,0.00045788225685710205,0.0003633334053186401,0.0014882200611750578,3.1536614313479945e-07,0.0064994047367546715,-0.7870245915919856,7.922071614953695e-05,-0.787226186726684,-0.7869431863462029,-0.22194959389660554,1.6353765532335485,-2.43682861328125,3.16314697265625,33.33111111111111,0.010482201257841264,33.31,33.34,0.21768707482993196,-0.000928792569659258,0,1,0
0,0.02670302964088945,0.0002930541815078305,0.025457980406099465,0.027522140979566984,0.026703016999224744,0.0002930540427710375,0.02545796835386211,0.027522127950121197,1.8373096262673104e-05,2.0163677153611924e-07,1.7516436559628233e-05,1.8936688172571062e-05,1.8373096262673104e-05,2.0163677153611924e-07,1.7516436559628233e-05,1.8936688172571062e-05,0.48667796610169506,21.252102232557462,-63.55,47.95,0.37838628469069363,0.0013101054774545577,0.37582953039818945,0.3814186530265064,0.0014040258577576728,0.0012452392346595492,0.0004518447532085286,0.003536644146308284,0.002070901407601891,0.007967092269560026,1.6328041170382557e-06,0.03485007385523854,-0.788434112536555,0.0008420956608730762,-0.7900043690561526,-0.7872969621790702,0.02383694602878723,1.6692286720908287,-2.5726318359375,3.34320068359375,33.315555555555555,0.008958064164774383,33.31,33.33,0.21694915254237288,-0.0006398348813208221,0,1,0
0,0.026964259743494725,0.000944195565219235,0.023393819832631935,0.030274355077523685,0.026964246978159287,0.0009441951182211267,0.02339380875760302,0.03027434074513332,1.85528363852892e-05,6.496564713390437e-07,1.6096184946685404e-05,2.083035698982817e-05,1.85528363852892e-05,6.496564713390437e-07,1.6096184946685404e-05,2.083035698982817e-05,0.557728813559318,41.83679373179743,-164.54,63.78,0.3845079056396292,0.011747351496593601,0.3703271739164393,0.41435276965449874,0.014582909368657556,0.005693756348719899,0.0034141902874962903,0.022660997955854155,0.013366936656502074,0.045973248355321794,7.73762839911818e-08,0.2068479118846177,-0.7921985655343677,0.001132585816089053,-0.7938701366085286,-0.7902322727795048,0.988129646547379,3.5091026924486775,-4.59747314453125,7.391357421875,33.33,0.0,33.33,33.33,0.05423728813559322,0.0,0,1,0
0,0.026211562837682865,0.0003706874765604564,0.02476992688161029,0.026834087455077812,0.026211550428686795,0.00037068730107075255,0.02476991515510908,0.02683407475136817,1.8034941116734392e-05,2.5505258323885863e-07,1.7043019355313955e-05,1.8463270968256787e-05,1.8034941116734392e-05,2.5505258323885863e-07,1.7043019355313955e-05,1.8463270968256787e-05,0.1700000000000001,21.43460680086021,-51.34,37.98,0.3796731230334567,0.0013977932302413115,0.37722855323822607,0.38206960833537057,0.008496689716736557,0.0009824099947818368,0.0070062211857521515,0.010232589763332321,0.006339092417290619,0.01756711565366856,2.222264705226129e-06,0.063247022911022,-0.7939960960181354,0.0003872168191964336,-0.7943503847198231,-0.7930245679905219,-1.343605476928408,1.7394808043910894,-4.79278564453125,1.885986328125,33.32666666666666,0.009428090415819879,33.31,33.34,0.19047619047619047,0.0014860681114550473,0,1,0
0,0.025841792576222607,0.0011633805834589395,0.022017712783653588,0.029586301553034506,0.025841780342282215,0.001163380032694943,0.02201770236009696,0.029586287546380288,1.7780519625980434e-05,8.004673528611613e-07,1.514935053805685e-05,2.035693978551389e-05,1.7780519625980434e-05,8.004673528611613e-07,1.514935053805685e-05,2.035693978551389e-05,-1.3314576271186438,33.649687266445156,-108.88,106.42,0.38878259767671547,0.008532213303700355,0.3792547778129349,0.4105947992421491,0.017177150854085305,0.006839605417027927,0.006880670847675687,0.02697881992782181,0.01322722189243611,0.05611219092095569,1.4536770132078658e-07,0.25129108596751343,-0.7897119691455269,0.00202394173622638,-0.7927737385432337,-0.7862178563109419,1.0253182120122033,2.531137269762751,-3.67279052734375,4.58526611328125,33.33526315789475,0.004993069989742102,33.33,33.34,0.18983050847457628,0.00033333333333350387,0,1,0
0,0.025541662591510222,0.00022488911590771467,0.025457980406099465,0.026146033930588636,0.025541650499656458,0.00022488900944141443,0.02545796835386211,0.02614602155261514,1.7574014327720533e-05,1.547356023105658e-07,1.7516436559628233e-05,1.7989853763942512e-05,1.7574014327720533e-05,1.547356023105658e-07,1.7516436559628233e-05,1.7989853763942512e-05,1.5020338983050836,15.051210726643687,-33.05,32.91,0.3850115696953235,0.001026743075959401,0.38312776317487557,0.38672583352848383,0.004233337576307601,0.002413788629661717,0.0012820455147616217,0.009253154989733713,0.0002618536953145008,0.0010712821083012785,2.717255768447391e-07,0.004678826421441046,-0.7826298330903172,0.0018169488103222074,-0.785805957740111,-0.7799333276349982,-0.8952359475595331,3.565199786370188,-5.45806884765625,5.68389892578125,33.336111111111116,0.00487498021522034,33.33,33.34,0.21694915254237288,0.0001341589267286548,0,1,0
0,0.0247886494264943,0.0016871859524611862,0.018577445161207715,0.026834087455077812,0.024788637691129597,0.0016871851537188967,0.018577436366331808,0.02683407475136817,1.7055901456111633e-05,1.1608731419049101e-06,1.2782264516485466e-05,1.8463270968256787e-05,1.7055901456111633e-05,1.1608731419049101e-06,1.2782264516485466e-05,1.8463270968256787e-05,3.083457627118648,65.04250289848208,-129.29,218.67,0.3870255279877848,0.00525939534939155,0.38101772600563644,0.40036118911211654,0.0033662756728978596,0.0036128861069494793,0.0004174707640937353,0.009414075704750178,0.005657257566265002,0.01916350127736004,2.674497468456438e-07,0.08256990244154648,-0.7783159840946118,0.0007377002808685443,-0.7797036272667998,-0.7772527818790417,0.5738611366302746,2.7016442375870664,-3.85589599609375,4.44183349609375,33.33944444444446,0.008480187512485486,33.33,33.37,0.16271186440677965,3.09597523216233e-05,0,1,0
0,0.023946134906711686,0.0004294977913212893,0.023393819832631935,0.025457980406099465,0.023946123570207506,0.0004294975879897889,0.02339380875760302,0.02545796835386211,1.6476206920216587e-05,2.9551718927308507e-07,1.6096184946685404e-05,1.7516436559628233e-05,1.6476206920216587e-05,2.9551718927308507e-07,1.6096184946685404e-05,1.7516436559628233e-05,-3.1870408163265305,18.56147232437864,-67.7,34.24,0.39110130198465937,0.0014446627820668626,0.38690919529594386,0.39296785134766543,0.00606031565346163,0.0012157116402580774,0.003516685804643543,0.008418969427519738,0.002478053595086114,0.005596176393535113,1.023242770861743e-06,0.02082298302005428,-0.776061982785751,0.0007518930105181651,-0.7771519036553824,-0.7746378112664096,-0.06590330138687016,2.215261307425982,-2.90985107421875,4.66156005859375,33.37,0.0,33.37,33.37,0.10884353741496598,0.0,0,1,0
0,0.023988893151109032,0.0006675175850235247,0.022705766308142764,0.025457980406099465,0.023988881794362395,0.0006675172690094372,0.022705755558849988,0.02545796835386211,1.650562685311935e-05,4.592873921648294e-07,1.5622767742371126e-05,1.7516436559628233e-05,1.650562685311935e-05,4.592873921648294e-07,1.5622767742371126e-05,1.7516436559628233e-05,-1.124711864406779,16.108849841688343,-54.93,46.53,0.3908357679585155,0.0011808919867878885,0.3890020989359507,0.3933386842449831,0.0013640903656583854,0.0008300570917059987,0.00039204352919822215,0.0031426125171029337,3.798692721850537e-07,4.1139824697091917e-07,1.5716268228493924e-07,1.7526645868515267e-06,-0.771984802139868,0.0015841365507410171,-0.7744124082908977,-0.7692780464002197,0.5668325302876784,2.3923711132730894,-3.533935546875,3.96575927734375,33.37,0.0,33.37,33.37,0.08135593220338982,0.0,0,1,0
0,0.024175486081541388,0.00023589663584084556,0.024081873357121114,0.02476992688161029,0.024175474636458437,0.0002358965241633981,0.02408186195635605,0.02476991515510908,1.6634012654988064e-05,1.6230935802534717e-07,1.656960215099968e-05,1.7043019355313955e-05,1.6634012654988064e-05,1.6230935802534717e-07,1.656960215099968e-05,1.7043019355313955e-05,1.1070169491525432,20.069036474123834,-43.63,66.38,0.3946791087551147,0.003952972255758719,0.38886586110298305,0.39993242991626515,0.00205121004853689,0.0014242370684526078,0.00018539060718972616,0.0038361496816302115,0.002150909074451555,0.009102493201550575,2.224110113866265e-07,0.040769454954438955,-0.766159818497808,0.0015968547518384999,-0.7689418046174622,-0.7637655845372366,-0.5661181125688198,2.2970197859264183,-3.23944091796875,4.1473388671875,33.35736842105264,0.014811839241544724,33.34,33.37,0.05423728813559322,-0.001052631578947159,0,1,0
0,0.023482151028343425,0.00024366314091635544,0.022705766308142764,0.024081873357121114,0.023482139911497047,0.00024366302556211173,0.022705755558849988,0.02408186195635605,1.615696147967164e-05,1.6765312415585298e-07,1.5622767742371126e-05,1.656960215099968e-05,1.615696147967164e-05,1.6765312415585298e-07,1.5622767742371126e-05,1.656960215099968e-05,-0.12274576271186424,9.118925352223869,-26.01,17.57,0.3981243838063128,0.0014340176329939716,0.3951967688031882,0.4004637090420213,0.0016282358474797854,0.0003244112392485636,0.0010740635388475192,0.002100785117243033,0.0008783177229541028,0.003608819494315924,7.787061231737114e-07,0.015757851071616733,-0.7627470543433881,0.00034991630317011393,-0.7635737994411963,-0.7624431275564219,0.7285056260665529,2.2089603950903003,-2.716064453125,3.94744873046875,33.3911111111111,0.012422599874998377,33.37,33.41,0.18983050847457628,0.00026831785345744893,0,1,0
0,0.023393819832631977,4.163336342344337e-17,0.023393819832631935,0.023393819832631935,0.023393808757603076,5.551115123125783e-17,0.02339380875760302,0.02339380875760302,1.6096184946685347e-05,5.759824041329242e-20,1.6096184946685404e-05,1.6096184946685404e-05,1.6096184946685347e-05,5.759824041329242e-20,1.6096184946685404e-05,1.6096184946685404e-05,-0.11258503401360588,7.146406459920138,-18.32,11.21,0.39713588134810046,0.0009144301800601395,0.3953070987499974,0.3985773563830403,0.0003995596404163917,0.00025488990414851556,0.00010671989872660618,0.0009579240409309356,2.13614062900943e-06,1.6289892574489525e-06,2.1517046495641082e-07,5.214579145290665e-06,-0.7632994692338413,0.0005228448920567664,-0.7642267403325557,-0.7625583999940351,-0.3824472353439923,2.608059863637614,-3.77349853515625,4.77294921875,33.38999999999999,0.012977713690460729,33.37,33.41,0.19047619047619047,-0.0005614035087716934,0,1,0
0,0.02363253227990371,0.00032751077570409513,0.023393819832631935,0.024081873357121114,0.023632521091864287,0.000327510620654967,0.02339380875760302,0.02408186195635605,1.6260431731855646e-05,2.2534473016723994e-07,1.6096184946685404e-05,1.656960215099968e-05,1.6260431731855646e-05,2.2534473016723994e-07,1.6096184946685404e-05,1.656960215099968e-05,-0.4379661016949157,14.043855376261865,-34.75,22.98,0.39387973008334487,0.0015239708094045023,0.3907049500328955,0.3960553111161879,4.007199213280609e-05,2.4739381407829627e-05,1.1652875353859894e-05,9.424815794344737e-05,3.429776485271026e-07,1.243780157510967e-07,1.9440752777608386e-07,5.242705265631298e-07,-0.7651355342826142,0.0004467478639362682,-0.7658095134265005,-0.7643377986579006,-0.022113171564730066,2.5301649975122245,-3.74908447265625,4.10919189453125,33.39444444444443,0.008314794192829328,33.39,33.41,0.18983050847457628,0.0011558307533537434,0,1,0
0,0.02373319758457593,0.000343995348578611,0.023393819832631935,0.024081873357121114,0.023733186348879828,0.00034399518572540764,0.02339380875760302,0.02408186195635605,1.6329694783948536e-05,2.3668698789400946e-07,1.6096184946685404e-05,1.656960215099968e-05,1.6329694783948536e-05,2.3668698789400946e-07,1.6096184946685404e-05,1.656960215099968e-05,1.457864406779661,15.542369140195099,-36.89,23.8,0.393611092970875,0.0012143872786678008,0.39087220008022094,0.39533139548846064,3.690654685865504e-05,3.29903669172117e-05,5.988257662994359e-06,0.00014748194116641518,0.0002548953814376693,0.000635668460990306,5.479215235972782e-07,0.002207955709445683,-0.7665210804943917,0.0004203207061503505,-0.7672728723878908,-0.7658784590617966,0.4192379517396932,2.007141411066761,-2.53143310546875,3.887939453125,33.392222222222216,0.006285393610545839,33.39,33.41,0.21694915254237288,0.0006604747162021389,0,1,0
0,0.02398357999647977,0.0005502087380074664,0.022017712783653588,0.025457980406099465,0.023983568642248463,0.0005502084775293656,0.02201770236009696,0.02545796835386211,1.6501971121811933e-05,3.785727029451141e-07,1.514935053805685e-05,1.7516436559628233e-05,1.6501971121811933e-05,3.785727029451141e-07,1.514935053805685e-05,1.7516436559628233e-05,-1.036847457627119,15.875366118093483,-44.09,23.13,0.3927360904705508,0.0011755126473358577,0.3904512193051759,0.3953840879818429,0.0002486085787617984,0.00010095817500255562,9.175031611996428e-05,0.00039236287714798114,1.1769466479977741e-06,8.046102399300641e-07,3.915152306578108e-07,4.044016702806595e-06,-0.7687761662678793,0.000957389867125276,-0.7705110814441178,-0.7673851651179575,-0.11451049123153498,2.2629028041589856,-3.729248046875,4.071044921875,33.39315789473683,0.007292845505551719,33.39,33.41,0.18983050847457628,-0.00028070175438590906,0,1,0
0,0.023950815542932703,0.0005861083630156627,0.021329659259164413,0.026146033930588636,0.02395080420421259,0.0005861080855420753,0.02132964916134393,0.02614602155261514,1.6479427445416027e-05,4.032735430722388e-07,1.4675933333742575e-05,1.7989853763942512e-05,1.6479427445416027e-05,4.032735430722388e-07,1.4675933333742575e-05,1.7989853763942512e-05,0.5183333333333319,42.27984213101535,-182.76,136.49,0.3882419252340073,0.0023897716400818492,0.38418324908367346,0.39217384158551766,3.471484393937721e-05,2.1323605869871223e-05,1.0151387126838217e-05,8.12087005015692e-05,3.3933954384719394e-07,1.4004787520097692e-07,1.8002374373442438e-07,5.771487411400963e-07,-0.7727980182445489,0.0012616090165892802,-0.7748454048353964,-0.770741651581514,-0.5315051776895452,2.846945115580811,-4.571533203125,4.92706298828125,33.41,0.01333333333333305,33.39,33.43,0.19047619047619047,0.0006604747162023736,0,1,0
0,0.023998191171710252,0.00022488911590771624,0.023393819832631935,0.024081873357121114,0.02399817981056171,0.00022488900944141364,0.02339380875760302,0.02408186195635605,1.6512024382907437e-05,1.547356023105651e-07,1.6096184946685404e-05,1.656960215099968e-05,1.6512024382907437e-05,1.547356023105651e-07,1.6096184946685404e-05,1.656960215099968e-05,-1.4554237288135603,19.8298484760516,-54.98,44.06,0.3856963284625418,0.0011577328819532648,0.3840580741410927,0.3882668770981473,1.4220441461917504e-05,3.296910989497906e-05,2.4012062290881003e-06,0.00014851360367497483,0.000184230492365522,0.0007562293176092659,4.291006317631548e-07,0.003391939256880648,-0.776741241867137,0.0009054110382739984,-0.7780027764360985,-0.7750724093558944,0.6871211617519483,2.27507557804478,-3.02276611328125,4.17327880859375,33.395263157894725,0.008806947647725358,33.39,33.41,0.08135593220338982,0.00045614035087710223,0,1,0
0,0.023955496179153702,0.00026642648442762204,0.023393819832631935,0.024081873357121114,0.023955484838217706,0.0002664263582968282,0.02339380875760302,0.02408186195635605,1.648264797061545e-05,1.8331550805825325e-07,1.6096184946685404e-05,1.656960215099968e-05,1.648264797061545e-05,1.8331550805825325e-07,1.6096184946685404e-05,1.656960215099968e-05,1.346508474576271,10.722352148939168,-23.36,20.44,0.3861441305572813,0.0010195337124816557,0.38364525828677387,0.3883944086511367,0.0012586967944924466,0.0005900939676626968,0.00024661530764743476,0.0020116944686152903,0.0010748702399716033,0.004417956208592039,5.017362834543182e-07,0.019290563495119713,-0.7784417767588989,0.00015260419670179025,-0.778575857812303,-0.7780858920324271,0.1308056496700958,2.052784561638071,-2.67791748046875,3.89251708984375,33.39444444444443,0.008314794192829326,33.39,33.41,0.21694915254237288,-0.00016511867905053473,0,1,0
0,0.023709952533072925,0.0003428940571905428,0.023393819832631935,0.024081873357121114,0.023709941308381458,0.00034289389485870985,0.02339380875760302,0.02408186195635605,1.6313700959478427e-05,2.359292411904199e-07,1.6096184946685404e-05,1.656960215099968e-05,1.6313700959478427e-05,2.359292411904199e-07,1.6096184946685404e-05,1.656960215099968e-05,-0.9613898305084744,10.560030516482858,-23.71,15.94,0.38487132519733,0.0008460348263251315,0.38351387214115057,0.38671599182785055,0.0003273524586663707,0.0002110472084352327,8.636413891811428e-05,0.0007921059118321004,6.254420555545537e-07,1.519357536951815e-07,3.1954121108390514e-07,8.034513292220005e-07,-0.7783836246042077,0.00010676286082326722,-0.7785511710730301,-0.7782237236368303,-0.34951524758161445,2.1648141181757112,-2.84271240234375,4.18853759765625,33.38157894736842,0.00987455949436666,33.37,33.39,0.18983050847457628,0.00042105263157901315,0,1,0
0,0.023534238919262408,0.00027730547699513717,0.023393819832631935,0.024081873357121114,0.02353422777775673,0.0002773053457140442,0.02339380875760302,0.02408186195635605,1.619280070266787e-05,1.908008301498628e-07,1.6096184946685404e-05,1.656960215099968e-05,1.619280070266787e-05,1.908008301498628e-07,1.6096184946685404e-05,1.656960215099968e-05,-0.019897959183673476,15.307445000344353,-31.9,26.03,0.3842203625789569,0.001003404445842529,0.38219684019789363,0.38597417529624994,3.245581667722113e-05,2.002450739103408e-05,9.409526556906231e-06,7.627588748912184e-05,2.819401574984564e-07,6.33614686147896e-08,2.285094036791899e-07,4.611316098669606e-07,-0.7782076395578045,1.7330354070922404e-05,-0.7782484885191376,-0.778189866002567,0.10684560013763958,1.6530491714102051,-2.25982666015625,3.40118408203125,33.38555555555555,0.00831479419283228,33.37,33.39,0.19047619047619047,0.0009907120743035606,0,1,0
0,0.023712103095660922,0.010149560051156014,0.008256642293870096,0.04816374671424223,0.023712091869951362,0.010149555246183084,0.00825663838503636,0.0481637239127121,1.631518066024575e-05,6.983433953056867e-06,5.681006451771319e-06,3.313920430199936e-05,1.631518066024575e-05,6.983433953056867e-06,5.681006451771319e-06,3.313920430199936e-05,9.902474576271182,100.52822620223634,-223.24,370.41,0.3869992530751693,0.0040633978260375524,0.38226890270902575,0.3975534754585508,0.0033371544314939753,0.002827865104007172,5.249535872526237e-06,0.00644837207187308,0.005038883848772829,0.011282154106753303,5.577742597969435e-07,0.040657414553457755,-0.7783441761605155,5.1309004703274594e-05,-0.7784210937808441,-0.7782579486000382,0.5186146621633086,2.494076406801587,-3.94439697265625,4.29534912109375,33.3811111111111,0.009938079900000618,33.37,33.39,0.10847457627118644,0.0006604747162023736,0,1,0
0,0.01996749924108791,0.0004486957314931073,0.018577445161207715,0.022017712783653588,0.019967489788136925,0.00044869551907297946,0.018577436366331808,0.02201770236009696,1.3738695219796086e-05,3.087263871643156e-07,1.2782264516485466e-05,1.514935053805685e-05,1.3738695219796086e-05,3.087263871643156e-07,1.2782264516485466e-05,1.514935053805685e-05,-9.021559322033905,56.71279845638859,-199.31,88.52,0.3878163998154502,0.0025605045741048083,0.38410904188353256,0.39364330639384937,0.0037430331009975057,0.0014677962540586204,0.0013921099199980542,0.005730367344210006,0.0009610535761185564,0.003949988926426337,4.2442515779325674e-07,0.01771199922774687,-0.778448080380785,9.379725638170014e-06,-0.7784635573241692,-0.7784268572678621,-0.540416234776045,2.282520596979701,-4.06951904296875,3.75823974609375,33.39210526315789,0.006137844099835937,33.39,33.41,0.08135593220338982,0.0005964912280700568,0,1,0
0,0.0199535522101861,3.469446951953614e-17,0.019953552210186066,0.019953552210186066,0.01995354276383787,0.0,0.01995354276383787,0.01995354276383787,1.3729098925114043e-05,2.371692252312041e-20,1.372909892511402e-05,1.372909892511402e-05,1.3729098925114043e-05,2.371692252312041e-20,1.372909892511402e-05,1.372909892511402e-05,0.1279591836734692,4.718938676188382,-11.13,8.12,0.3846939443588086,0.001242526106269546,0.38263052228985034,0.38668117071537267,0.000523815450756593,0.00032463516479703863,0.00014873218840842135,0.001231641513164222,5.419680319008542e-07,1.4671441043597276e-07,3.9514985548591564e-07,8.810854937434803e-07,-0.7785550787923603,7.385867549891601e-05,-0.7787081649855104,-0.7784671800813592,0.5284851301396751,1.932339050990826,-2.691650390625,3.460693359375,33.41444444444444,0.015713484026367724,33.39,33.43,0.21768707482993196,-0.00016511867905065207,0,1,0
0,0.0199535522101861,3.469446951953614e-17,0.019953552210186066,0.019953552210186066,0.01995354276383787,0.0,0.01995354276383787,0.01995354276383787,1.3729098925114043e-05,2.371692252312041e-20,1.372909892511402e-05,1.372909892511402e-05,1.3729098925114043e-05,2.371692252312041e-20,1.372909892511402e-05,1.372909892511402e-05,-0.2534915254237284,4.968490990683636,-12.02,8.49,0.38393641754000435,0.0013305729607573983,0.3808153078116659,0.3864535681927551,5.3623191689381055e-05,3.48032369167967e-05,1.4369940888811277e-05,0.0001313108831335136,4.794476614730446e-07,1.4709378864787605e-07,3.0432988081322e-07,8.777670896668367e-07,-0.7791356994277506,0.00027484025241360867,-0.7796294384210479,-0.7787376710076712,-0.3164977648713748,1.6359690189475153,-2.31170654296875,3.19671630859375,33.40894736842103,0.012093816097974342,33.39,33.43,0.18983050847457628,0.000771929824561549,0,1,0
0,0.02009767152950476,0.0002799846913731494,0.019953552210186066,0.020641605734675238,0.020097662014927985,0.0002799845588236743,0.01995354276383787,0.020641595962590898,1.3828260636828516e-05,1.926442713000854e-07,1.372909892511402e-05,1.4202516129428297e-05,1.3828260636828516e-05,1.926442713000854e-07,1.372909892511402e-05,1.4202516129428297e-05,0.022067796610169246,4.789967778329778,-13.18,12.14,0.38332997876712666,0.0008872422009951428,0.38159659856278716,0.38474456706617094,7.606670483196154e-06,2.475636894634408e-06,3.7922752742331653e-06,1.2788826111728541e-05,2.455173080258996e-06,2.5441043648115796e-06,3.804828178982986e-07,8.268755617961535e-06,-0.7802670639437481,0.0003526974842706493,-0.7808426500513095,-0.7796937390255544,0.5704978590162504,2.260645781008177,-3.16314697265625,3.81927490234375,33.42444444444444,0.008958064164777567,33.41,33.43,0.21694915254237288,-2.0639834881324176e-05,0,1,0
0,0.02011737447792161,0.00029305418150782955,0.019953552210186066,0.020641605734675238,0.020117364954017163,0.0002930540427710368,0.01995354276383787,0.020641595962590898,1.3841817307093628e-05,2.016367715361204e-07,1.372909892511402e-05,1.4202516129428297e-05,1.3841817307093628e-05,2.016367715361204e-07,1.372909892511402e-05,1.4202516129428297e-05,0.02508474576271209,5.16999097559497,-13.78,12.51,0.38223222225211195,0.0015422590375569058,0.37934761211249657,0.38441819432113755,1.9428544131815337e-06,6.407095680145459e-07,1.1967103401722701e-06,3.443649139089184e-06,6.363685528204432e-07,3.717502172435581e-07,3.081119129417546e-07,1.596062166478179e-06,-0.7814024305520986,0.00028691346084513063,-0.7818534042957768,-0.780907848481006,-0.16449003015435928,2.3075018057552343,-3.34930419921875,4.02984619140625,33.42555555555556,0.014229164972075221,33.41,33.45,0.18983050847457628,0.001857585139319176,0,1,0
0,0.020594799372465073,0.00017324678047185034,0.019953552210186066,0.020641605734675238,0.020594789622539633,0.00017324669845390162,0.01995354276383787,0.020641595962590898,1.4170310877434138e-05,1.192029450446092e-07,1.372909892511402e-05,1.4202516129428297e-05,1.4170310877434138e-05,1.192029450446092e-07,1.372909892511402e-05,1.4202516129428297e-05,-1.4284353741496603,7.059229275219019,-18.49,12.66,0.3813339319674526,0.0007964409952063304,0.3799362957090988,0.38280908383740375,8.153537773614941e-07,1.3564935147117137e-07,7.050704341778622e-07,1.132031247413437e-06,4.885957932850193e-07,8.569077531091158e-08,3.7194217484512763e-07,6.424688311064529e-07,-0.7824159721746478,0.0003348953645379277,-0.783014227530685,-0.7819038440568793,-0.2541191633357558,2.0597545817824456,-3.28826904296875,3.55377197265625,33.426842105263155,0.009761703679470685,33.41,33.45,0.21768707482993196,-0.001087719298245784,0,1,0
0,0.02066949979647883,0.00013570014315538665,0.020641605734675238,0.021329659259164413,0.02066949001118896,0.0001357000789126502,0.020641595962590898,0.02132964916134393,1.4221708718792408e-05,9.336887336688763e-08,1.4202516129428297e-05,1.4675933333742575e-05,1.4221708718792408e-05,9.336887336688763e-08,1.4202516129428297e-05,1.4675933333742575e-05,0.9201355932203378,8.503476376758451,-20.21,16.45,0.38022103955925246,0.0010797337201954636,0.3789258869519256,0.38270692238640464,6.566986721503505e-05,0.000120833116625535,7.11495698640951e-07,0.0003561353710645905,0.00021765477747552335,0.0008826140225510782,5.123063197947057e-07,0.003856710285418314,-0.7839988626298118,0.0006080392719762218,-0.7850816383504746,-0.7830967539099657,0.43288043593531844,2.2498454153241627,-2.99224853515625,3.98712158203125,33.425555555555555,0.008314794192832283,33.41,33.43,0.21694915254237288,0.0008255933952529671,0,1,0
0,0.02236876050022967,0.003011872117269412,0.019953552210186066,0.034402676224458736,0.022368749910481163,0.003011870691398347,0.01995354276383787,0.0344026599376515,1.53908899280131e-05,2.072327263447132e-06,1.372909892511402e-05,2.367086021571383e-05,1.53908899280131e-05,2.072327263447132e-06,1.372909892511402e-05,2.367086021571383e-05,1.5517966101694884,49.244848532020924,-165.69,193.8,0.3792276726037351,0.0008528723871278796,0.3775198128239017,0.3806778689773135,0.00018623728246474014,9.953274596037581e-05,5.631545464870076e-05,0.0003587471428481451,1.7950867827852473e-06,2.493520648272479e-06,1.4303136443359447e-07,1.0048148459162846e-05,-0.7866737606033053,0.0008912146990119229,-0.788141686849187,-0.7852314067443227,-0.2530630409865462,1.764622371027062,-2.58636474609375,3.17535400390625,33.42999999999999,7.105427357601002e-15,33.43,33.43,0.16271186440677965,0.0,0,1,0
0,0.026694617146059686,0.005002689363509298,0.010320802867337619,0.037842943846904606,0.026694604508377708,0.005002686995151764,0.010320797981295449,0.03784292593141665,1.8367308021436294e-05,3.4421147893743566e-06,7.101258064714148e-06,2.6037946237285214e-05,1.8367308021436294e-05,3.4421147893743566e-06,7.101258064714148e-06,2.6037946237285214e-05,-4.953457627118641,127.98323932470534,-344.41,287.78,0.375464800050761,0.0024121088115017916,0.3703946020157587,0.37890130358359664,0.0007446843561312384,0.0007503512079387397,2.105615642537651e-05,0.001829891521696022,0.001205269476156673,0.0035391427825111448,1.5467601769986617e-07,0.01417345230635463,-0.7895126964650659,0.0006955514649423099,-0.7905651358908704,-0.7883009822107032,0.16336751731330476,3.277127319555505,-5.55572509765625,4.44183349609375,33.43888888888889,0.009938079900000618,33.43,33.45,0.10847457627118644,0.0006604747162023736,0,1,0
0,0.025359687045458067,0.00024076857867457886,0.02476992688161029,0.025457980406099465,0.02535967503975459,0.0002407684646906731,0.02476991515510908,0.02545796835386211,1.7448805530440497e-05,1.6566151228927345e-07,1.7043019355313955e-05,1.7516436559628233e-05,1.7448805530440497e-05,1.6566151228927345e-07,1.7043019355313955e-05,1.7516436559628233e-05,2.964557823129254,12.981830381058554,-20.02,71.21,0.3759899221748829,0.001141738946552001,0.3739033872588924,0.3779679990105237,0.0015844055368779235,0.0006639265718460567,0.001002309370972248,0.0031688120594426214,0.0021913456294201596,0.005814730813605357,1.5689787340143757e-06,0.023892846862308602,-0.7914393267275418,0.00045019290031266646,-0.7921627538379367,-0.7906651227982439,-0.06276353939559108,1.8043700473643092,-2.8961181640625,3.58123779296875,33.42157894736842,0.00987455949436666,33.41,33.43,0.21768707482993196,-0.00042105263157901315,0,1,0
0,0.02932418592465769,0.007656093073203406,0.01788939163671854,0.04816374671424223,0.029324172042093432,0.007656089448679801,0.01788938316757878,0.0481637239127121,2.0176590374346552e-05,5.267796835103461e-06,1.230884731217119e-05,3.313920430199936e-05,2.0176590374346552e-05,5.267796835103461e-06,1.230884731217119e-05,3.313920430199936e-05,-0.3548813559322044,40.2217822667611,-141.36,141.22,0.37495022653155785,0.0037236273294365446,0.3653317970727804,0.3782481453049467,0.002209744732623782,0.0010365292286512418,0.0008209423008541823,0.004826184658750085,0.005606951303498125,0.02310757812230732,2.0640270569430297e-07,0.10088193282609154,-0.7930536702886175,0.0005363759717828187,-0.7940119756025618,-0.792243823891209,2.0025624350069324,3.7569041875013016,-5.29022216796875,10.00518798828125,33.42555555555554,0.01571348402637018,33.41,33.45,0.21694915254237288,0.0004953560371517803,0,1,0
0,0.028228790545258474,0.0020748965784412945,0.01926549868569689,0.031650462126502035,0.028228777181273017,0.002074895596150262,0.01926548956508484,0.03165044714263938,1.942290043646145e-05,1.4276385520097546e-06,1.3255681720799745e-05,2.177719139845672e-05,1.942290043646145e-05,1.4276385520097546e-06,1.3255681720799745e-05,2.177719139845672e-05,1.0528135593220362,74.50338421080976,-249.15,184.15,0.37661187322121004,0.008928886778394474,0.3628021827201192,0.39851444251429763,0.007239222060012296,0.002633650921739573,0.002948052250547182,0.010832346182107308,0.0009386118043059741,0.003858300308093071,1.0344375081516866e-07,0.016846758221741975,-0.7954838477061599,0.0008422834363365048,-0.7968911292831914,-0.7941506540567307,-2.478913139416644,4.300884774425825,-9.26971435546875,3.9642333984375,33.42555555555555,0.00831479419283228,33.41,33.43,0.08135593220338982,0.0001651186790505934,0,1,0
0,0.03178151994069042,0.006320058414245024,0.017201338112229368,0.056420389008112325,0.03178150489478281,0.006320055422222763,0.01720132996882575,0.05642036229774846,2.1867366104040414e-05,4.348534349556804e-06,1.1835430107856916e-05,3.882021075377068e-05,2.1867366104040414e-05,4.348534349556804e-06,1.1835430107856916e-05,3.882021075377068e-05,0.10738983050847552,24.598439794134496,-85.44,99.43,0.3729790852169511,0.0031169463534952693,0.3682569850593674,0.3839031387736825,0.005237403020803608,0.005756189392770967,0.0016398669087116765,0.02262438338883207,0.01525256304058575,0.035586836578208915,3.837740094603248e-07,0.11870574190128598,-0.7984438526599833,0.0007974285567586355,-0.7996530341964481,-0.7970592250027319,1.103341076569285,1.258926031440712,-0.4974365234375,4.23736572265625,33.45000000000001,0.012977713690460725,33.43,33.47,0.21694915254237288,-0.0005614035087720424,0,1,0
0,0.027470653981135823,0.009557595558714625,0.007568588769380921,0.05229206786117727,0.027470640976064845,0.009557591033987664,0.00756858518628333,0.05229204310523028,1.8901262395377478e-05,6.576131083308489e-06,5.2075892474570424e-06,3.5979707527885024e-05,1.8901262395377478e-05,6.576131083308489e-06,5.2075892474570424e-06,3.5979707527885024e-05,5.160952380952382,80.56138626063876,-142.17,234.94,0.3798801246894076,0.011364079441516033,0.3660293110336068,0.41043182919763527,0.015181847333620898,0.006213353612017446,0.007171370548237536,0.02492664357028773,0.005032306997176836,0.020741492828862694,1.407814437248689e-07,0.0905516712460273,-0.8003091269880311,0.00026684462408510436,-0.8006054139893395,-0.7997557676356954,-0.0975544931870832,1.2889967466837502,-2.2552490234375,2.69927978515625,33.4588888888889,0.009938079899997088,33.45,33.47,0.10884353741496598,-0.0006604747162021389,0,1,0
0,0.027466352855959733,0.009166707206789963,0.012384963440805145,0.053668174910155624,0.027466339852925018,0.009166702867116145,0.01238495757755454,0.05366814950273634,1.889830299384289e-05,6.307179229737834e-06,8.521509677656977e-06,3.6926541936513574e-05,1.889830299384289e-05,6.307179229737834e-06,8.521509677656977e-06,3.6926541936513574e-05,-13.585457627118648,108.78489356918251,-202.55,223.44,0.37701408721321905,0.0036387652098795126,0.369858208554136,0.3860101640655994,0.011763735551297616,0.003576377728137493,0.006186095582574001,0.017593929929583536,0.010103500776797522,0.030644780987579834,5.032851003727856e-07,0.12528904963600362,-0.8003215034610957,0.00025281834678269314,-0.800606074583326,-0.7998045948053941,-0.18773800681897487,2.0840426411325326,-3.73382568359375,4.12445068359375,33.47315789473685,0.020275116088692053,33.45,33.5,0.16271186440677965,0.00354385964912265,0,1,0
0,0.029848417181411367,0.0009937950809604,0.027522140979566984,0.033026569175480386,0.029848403050667126,0.0009937946104810426,0.027522127950121197,0.03302655354014544,2.0537289196681214e-05,6.837835606450052e-07,1.8936688172571062e-05,2.2724025807085277e-05,2.0537289196681214e-05,6.837835606450052e-07,1.8936688172571062e-05,2.2724025807085277e-05,8.43694915254237,44.80280170015996,-64.01,187.86,0.3753718441854312,0.005996907513796456,0.36760659304226573,0.38979747452805225,0.008357709381136467,0.004518848787594013,0.0026126793321797747,0.016830416252103592,2.92704507300993e-07,3.696776272645385e-08,2.0930038496791425e-07,3.514734613352388e-07,-0.7987984600984455,0.0006060595671463685,-0.7997186982790679,-0.7977465014878162,-0.015500714014747518,1.4434952068678981,-2.61383056640625,3.02581787109375,33.50111111111111,0.010999438818457292,33.49,33.53,0.18983050847457628,0.0009081527347781758,0,1,0
0,0.029442182233715856,0.0002799846913731495,0.028898248028545334,0.029586301553034506,0.029442168295290106,0.00027998455882367505,0.02889823434762726,0.029586287546380288,2.0257778073799393e-05,1.926442713000843e-07,1.9883522581199616e-05,2.035693978551389e-05,2.0257778073799393e-05,1.926442713000843e-07,1.9883522581199616e-05,2.035693978551389e-05,-1.4758644067796591,26.322361000859722,-106.27,60.91,0.37118818482896615,0.0012340496116809213,0.3693838108984636,0.37419618327890136,0.0009389208859593089,0.0006140554336726599,0.0002451532097340013,0.00230743515753719,1.3552775618803567e-06,1.5904370454384688e-06,3.359758287135861e-07,6.5878252651953295e-06,-0.7963230772912486,0.0007866759847531418,-0.797608748634543,-0.7950362377767466,0.27489437358846736,0.8147344064356614,-1.202392578125,2.30560302734375,33.535263157894725,0.008806947647725358,33.53,33.55,0.13559322033898305,0.0001052631578947159,0,1,0
0,0.029595662825476567,7.9708362646011e-05,0.029586301553034506,0.030274355077523685,0.029595648814390512,7.970832491072741e-05,0.029586287546380288,0.03027434074513332,2.0363380835912696e-05,5.484356792207186e-08,2.035693978551389e-05,2.083035698982817e-05,2.0363380835912696e-05,5.484356792207186e-08,2.035693978551389e-05,2.083035698982817e-05,1.7572789115646255,11.997217707940951,-55.21,22.44,0.3730419937606472,0.001440936947776545,0.3706236209606783,0.3755999127536288,9.236480561985995e-05,5.6899733333333015e-05,2.665315985875181e-05,0.00021667235591511476,6.972719157979714e-07,2.3512112687635544e-07,4.0498413812208815e-07,1.191719384993628e-06,-0.7938334548348195,0.0006184559674185015,-0.7948980497224353,-0.7928758426573753,0.26085666628096893,2.048185520656586,-3.06854248046875,3.66973876953125,33.55,0.0,33.55,33.55,0.21768707482993196,0.0,0,1,0
0,0.029586301553034537,3.122502256758253e-17,0.029586301553034506,0.029586301553034506,0.029586287546380263,2.42861286636753e-17,0.029586287546380288,0.029586287546380288,2.0356939785513864e-05,2.710505431213761e-20,2.035693978551389e-05,2.035693978551389e-05,2.0356939785513864e-05,2.710505431213761e-20,2.035693978551389e-05,2.035693978551389e-05,-1.2508135593220344,7.99204074503657,-20.97,13.56,0.37425118850604716,0.0015561969311715027,0.3697966410867909,0.3763120796600864,1.1220852364745608e-05,5.686742887249719e-06,4.451506873348347e-06,2.3625367837168858e-05,1.5360526397604285e-06,8.7155987675367e-07,4.0716934198575805e-07,3.908289143262072e-06,-0.7920777452340522,0.0003963500275171661,-0.7927784660061293,-0.7914824541554715,-0.30852627613660605,0.9843876986802684,-2.18963623046875,1.85699462890625,33.559999999999995,0.010000000000001563,33.55,33.57,0.21694915254237288,0.00035087719298251103,0,1,0
0,0.029604897594236942,0.00011157624721446142,0.029586301553034506,0.030274355077523685,0.02960488357877899,0.00011157619439238366,0.029586287546380288,0.03027434074513332,2.036973484508993e-05,7.677035745636951e-08,2.035693978551389e-05,2.083035698982817e-05,2.036973484508993e-05,7.677035745636951e-08,2.035693978551389e-05,2.083035698982817e-05,1.0069830508474573,9.075519542473279,-18.7,15.0,0.37459535637768865,0.0009158871308275533,0.3727494900782678,0.37609752223039217,1.950616208039093e-06,9.633894273200434e-07,8.666874708256538e-07,4.039263111310756e-06,3.611952455980844e-07,6.282461814378952e-08,2.98263308882259e-07,4.83424730595836e-07,-0.791059324010465,0.00019271825696671197,-0.7914269392942902,-0.790795260149534,0.17650216152295287,0.7330288080641949,-1.123046875,1.96380615234375,33.56157894736841,0.00987455949436666,33.55,33.57,0.21694915254237288,-0.00042105263157901315,0,1,0
0,0.02960034346169758,9.728519695853847e-05,0.029586301553034506,0.030274355077523685,0.029600329448395635,9.728515090208465e-05,0.029586287546380288,0.03027434074513332,2.0366601361112116e-05,6.693735926935082e-08,2.035693978551389e-05,2.083035698982817e-05,2.0366601361112116e-05,6.693735926935082e-08,2.035693978551389e-05,2.083035698982817e-05,-1.08312925170068,8.049121412545984,-20.04,12.92,0.37498649891166785,0.0008417593888500874,0.3728829262045129,0.3760180203876188,1.0973073490513894e-06,5.949534785154156e-07,7.024144023823464e-07,2.7580068908430425e-06,2.294001563891542e-06,2.1493973280432022e-06,4.2757719413531606e-07,5.859133673033681e-06,-0.7906388377435563,8.464132090649656e-05,-0.7907766270456674,-0.7904901490106498,0.14024218613693198,1.0195959664126224,-1.45111083984375,2.17132568359375,33.55666666666667,0.009428090415822106,33.55,33.57,0.21768707482993196,0.0001651186790505934,0,1,0
0,0.02960034346169758,9.728519695853825e-05,0.029586301553034506,0.030274355077523685,0.029600329448395624,9.728515090208483e-05,0.029586287546380288,0.03027434074513332,2.036660136111212e-05,6.69373592693507e-08,2.035693978551389e-05,2.083035698982817e-05,2.036660136111212e-05,6.69373592693507e-08,2.035693978551389e-05,2.083035698982817e-05,1.6237966101694903,8.283201736616103,-16.29,18.76,0.3759825631469311,0.0010097745206620677,0.3732962062442608,0.377896512950621,2.7987095428318733e-06,8.203966612499391e-07,1.4607290273997172e-06,3.865901696614227e-06,9.642377603385893e-07,1.0127847946571116e-06,3.913837349031267e-07,4.545048519484442e-06,-0.7901326555731376,0.0002456392985185604,-0.7904671881916145,-0.7896618657121373,-0.08044136369198783,0.8964183028397934,-1.46942138671875,2.19879150390625,33.56578947368422,0.008153649149911627,33.55,33.57,0.21694915254237288,0.00021052631578950657,0,1,0
0,0.029656036707543566,0.0002076500109952846,0.029586301553034506,0.030274355077523685,0.029656022667875523,0.00020764991269026618,0.029586287546380288,0.03027434074513332,2.040492125892411e-05,1.4287418664732531e-07,2.035693978551389e-05,2.083035698982817e-05,2.040492125892411e-05,1.4287418664732531e-07,2.035693978551389e-05,2.083035698982817e-05,-0.3032881355932221,9.653656110863306,-20.77,19.22,0.37610188188416105,0.0012374049435257494,0.37398695467121856,0.3790446672460007,9.09420983521415e-07,2.0515983729912617e-07,6.580161848146753e-07,1.3602918034605807e-06,4.40494860012568e-07,6.050230264601848e-08,3.625345148576962e-07,5.497959308388977e-07,-0.7889589832332594,0.0003847003066439303,-0.7895917596318435,-0.7883496259027686,0.44420167151867435,1.226428327259183,-1.53045654296875,3.07769775390625,33.55777777777777,0.009749960430437217,33.55,33.57,0.21694915254237288,-0.0015892672858619616,0,1,0
0,0.029619066006581637,0.00014652709075391594,0.029586301553034506,0.030274355077523685,0.029619051984416132,0.00014652702138551917,0.029586287546380288,0.03027434074513332,2.0379483461909784e-05,1.0081838576806052e-07,2.035693978551389e-05,2.083035698982817e-05,2.0379483461909784e-05,1.0081838576806052e-07,2.035693978551389e-05,2.083035698982817e-05,-0.7506101694915261,8.853279635573434,-21.71,18.67,0.37709007183063303,0.001019968520645078,0.37502741968283904,0.37895070297409145,6.420879636452339e-07,9.58823324461426e-09,6.237156768040068e-07,6.565196628704548e-07,5.307087609043063e-07,1.5244148467255937e-07,4.041415489509389e-07,1.0743731964041745e-06,-0.7879938209641227,0.00012893629438572252,-0.7882888185701001,-0.7878733639204897,-0.4251828668578382,1.0741453158394927,-2.23236083984375,1.98974609375,33.553333333333335,0.010000000000000646,33.53,33.57,0.21694915254237288,-0.0013415892672859469,0,1,0
0,0.029693956186117875,0.00024996525697839163,0.029586301553034506,0.030274355077523685,0.029693942128498057,0.00024996513864062177,0.029586287546380288,0.03027434074513332,2.043101186510047e-05,1.719893132184249e-07,2.035693978551389e-05,2.083035698982817e-05,2.043101186510047e-05,1.719893132184249e-07,2.035693978551389e-05,2.083035698982817e-05,0.13057823129251697,8.159919842897926,-19.83,14.11,0.3770068937123931,0.0013727665327726575,0.3744992616390064,0.3792179926825684,1.0376224413536183e-06,1.4789206000569216e-07,6.745558210894962e-07,1.209023536026066e-06,9.10631243251337e-07,4.1442620230385706e-07,5.482788604720933e-07,1.784866694431804e-06,-0.7884442033419086,0.0002931808608906748,-0.7888757452266361,-0.7879741315247621,0.08900534459786821,1.4662754035774905,-2.11029052734375,3.2562255859375,33.55947368421052,0.019861012909594293,33.53,33.59,0.21768707482993196,7.017543859620301e-05,0,1,0
0,0.02670391516666092,0.004125493077404687,0.015137177538761842,0.032338515650991204,0.026703902524577067,0.004125491124326676,0.01513717037256666,0.03233850034139241,1.8373705551224367e-05,2.838557364520202e-06,1.0415178494914085e-05,2.2250608602771e-05,1.8373705551224367e-05,2.838557364520202e-06,1.0415178494914085e-05,2.2250608602771e-05,11.51942372881356,48.22379030305825,-68.67,227.87,0.3775523124530027,0.0019614714507745867,0.3747713122616881,0.3821222889212955,0.0006793562981840642,0.0010655554023834704,9.790050843695114e-07,0.0032061416263796656,0.002009106428125296,0.007717314997714693,6.348721454257922e-07,0.03375412340282681,-0.7884680677255387,0.00047635206718540067,-0.7889096518833878,-0.7873903759845639,-0.029140357604279785,1.5180406753160702,-3.32183837890625,2.55279541015625,33.57000000000001,7.105427357601002e-15,33.57,33.57,0.08135593220338982,0.0,0,1,0
0,0.04008496859677063,0.00701132746387712,0.008256642293870096,0.05435622843464479,0.04008494961987035,0.007011324144596408,0.00825663838503636,0.054356202701489366,2.758057780780594e-05,4.824164005183927e-06,5.681006451771319e-06,3.739995914082785e-05,2.758057780780594e-05,4.824164005183927e-06,5.681006451771319e-06,3.739995914082785e-05,-12.474406779661008,49.224519529937254,-122.02,160.28,0.38201709498967235,0.002175554022956061,0.3776344469860534,0.38555012626481416,0.0016389278802131971,0.0008920477998212286,0.0004872321910544209,0.0032121603417637206,4.335974655645713e-07,2.9638279391532416e-07,1.5057710592986107e-07,1.1410269359773961e-06,-0.7838644468687557,0.0022659324563192307,-0.7871517916823224,-0.7798058458508954,-0.7403612728450197,5.161200819263125,-8.05511474609375,7.88421630859375,33.5478947368421,0.01104009313863248,33.53,33.57,0.10847457627118644,0.00017543859649098124,0,1,0
0,0.01760580200838177,0.01916126635403087,0.0,0.05917260310606901,0.014267805857926013,0.021761145823016827,-0.01513717037256666,0.059172575092760575,9.817009459733216e-06,1.4972825992057863e-05,-1.0415178494914085e-05,4.071387957102778e-05,9.817009459733216e-06,1.4972825992057863e-05,-1.0415178494914085e-05,4.071387957102778e-05,0.6221355932203392,54.69163700066147,-164.72,164.03,0.39240022222733145,0.010877558141430089,0.38116385083664756,0.4121241667670635,0.008112207418229486,0.00881579359476332,0.00015879889916023916,0.020374275745028102,0.012664235823548219,0.05060396761078199,1.5883743681444074e-07,0.22121426126430802,-0.7746643197894194,0.0028235324227157605,-0.7792815326091277,-0.7700888084478325,1.5810349547563411,3.0407179747483077,-6.243896484375,6.13861083984375,33.55111111111111,0.012422599874998762,33.53,33.57,0.13559322033898305,-0.0015892672858616318,0,1,0
0,0.002092244390793616,0.0003486995449606859,0.0013761070489783493,0.0027522140979566985,-0.0020922434002898266,0.00034869937988044004,-0.00275221279501212,-0.00137610639750606,-1.4395747641393281e-06,2.39923723729935e-07,-1.8936688172571063e-06,-9.468344086285532e-07,-1.4395747641393281e-06,2.39923723729935e-07,-1.8936688172571063e-06,-9.468344086285532e-07,-0.8097959183673464,16.639692279066455,-50.15,56.49,0.4020108896542796,0.001438421021502909,0.3999198001810126,0.40469863261172406,0.009465147873270992,0.003430122885347345,0.004858488442840962,0.01639902006474122,0.0026935281822251383,0.007360273426940665,1.9281007279103868e-06,0.03171358115611819,-0.7656713751876826,0.002208517519708359,-0.769581053145907,-0.7623229489319874,-0.501544804536095,2.7919959225808375,-3.80096435546875,5.64117431640625,33.548947368421054,0.013724636642531455,33.53,33.57,0.08163265306122448,0.0014385964912280581,0,1,0
0,0.00232627620184435,0.00047025837551871707,0.0013761070489783493,0.003440267622445873,-0.0023262751005459622,0.00047025815289047007,-0.0034402659937651497,-0.00137610639750606,-1.60060102411017e-06,3.235626263359797e-07,-2.3670860215713828e-06,-9.468344086285532e-07,-1.60060102411017e-06,3.235626263359797e-07,-2.3670860215713828e-06,-9.468344086285532e-07,0.9502711864406783,4.657585676424812,-8.77,22.72,0.40099943625371537,0.0013538876625611717,0.3991094302515607,0.4039335155684629,0.0023560247426235308,0.001107055824094205,0.0008217611342710399,0.004438317421856707,0.0003391323402729034,0.001293489916466728,6.650385193547603e-07,0.005661430211824969,-0.7597974172269855,0.0012687953330349508,-0.7620163718336186,-0.7578459216552651,0.7571502979076171,1.78265143037357,-1.00250244140625,6.072998046875,33.56777777777778,0.01474055462380408,33.55,33.59,0.21694915254237288,0.0026418988648094946,0,1,0
0,0.0026266908198404257,0.00026572662750330337,0.002064160573467524,0.0027522140979566985,-0.002626689576320695,0.00026572650170383536,-0.00275221279501212,-0.00206415959625909,-1.8073021651186881e-06,1.8283396949077642e-07,-1.8936688172571063e-06,-1.4202516129428298e-06,-1.8073021651186881e-06,1.8283396949077642e-07,-1.8936688172571063e-06,-1.4202516129428298e-06,-0.07416949152542368,3.3060282748826393,-7.79,6.65,0.40227743055977716,0.001218087209037064,0.3998782061666838,0.40433459112031495,0.00030885149290149665,0.00019152851679484162,8.7662915367923e-05,0.0007267236370299905,3.694745385693467e-07,1.1256820772718343e-07,1.970931032535799e-07,6.487607716685467e-07,-0.7560725031353263,0.0009294852536817571,-0.7576455415266412,-0.7546158048336139,-0.8821630048855394,3.7127850769207185,-5.67779541015625,6.07757568359375,33.60555555555557,0.008314794192829324,33.59,33.61,0.37966101694915255,0.0011558307533537434,0,1,0
0,0.0026071143751052353,0.0002806821086902023,0.002064160573467524,0.0027522140979566985,-0.0026071131408533232,0.000280681975810557,-0.00275221279501212,-0.00206415959625909,-1.7938325360751805e-06,1.9312413128877452e-07,-1.8936688172571063e-06,-1.4202516129428298e-06,-1.7938325360751805e-06,1.9312413128877452e-07,-1.8936688172571063e-06,-1.4202516129428298e-06,-0.05142372881355938,4.660785051365292,-12.25,11.83,0.40251737970752793,0.0010611226895612547,0.4006149303532851,0.4043237516944653,3.160449349409222e-05,2.0506985426095612e-05,8.509092946025697e-06,7.738926627285309e-05,3.214195804343855e-07,1.3829195814846567e-07,1.9474281437708435e-07,6.089307031033222e-07,-0.7536534160796325,0.0003736206824914292,-0.7544701068771904,-0.7532969877077416,-0.368260745670896,2.323182411941266,-3.74755859375,4.29840087890625,33.62894736842105,0.00787717344584011,33.61,33.65,0.37966101694915255,0.0009122807017544163,0,1,0
0,0.0026211562837682788,0.0002818504866090928,0.002064160573467524,0.003440267622445873,-0.0026211550428686917,0.0002818503531763182,-0.0034402659937651497,-0.00206415959625909,-1.8034941116734309e-06,1.939280370726376e-07,-2.3670860215713828e-06,-1.4202516129428298e-06,-1.8034941116734309e-06,1.939280370726376e-07,-2.3670860215713828e-06,-1.4202516129428298e-06,0.25734693877551085,5.141469564997612,-12.1,12.62,0.4030485778448194,0.0006979073456061792,0.40161509332045053,0.40457973200046593,0.0004067697275591526,0.0006342352621316716,4.649512230764346e-06,0.0018905097507625093,0.0026206693531333927,0.0074325341558987455,6.574622059372242e-07,0.030198740621239818,-0.7547735831040862,0.0010932220505367137,-0.7569372371166503,-0.7534221208376489,0.4872655750208398,2.863245240156058,-4.01458740234375,4.80194091796875,33.65166666666666,0.003726779962498908,33.65,33.66,0.19047619047619047,0.000464396284829629,0,1,0
0,0.001938637295351251,0.0006248899365775416,0.0006880535244891746,0.003440267622445873,-0.0019386363775676636,0.0006248896407441056,-0.0034402659937651497,-0.00068805319875303,-1.333884960804412e-06,4.299573161816131e-07,-2.3670860215713828e-06,-4.734172043142766e-07,-1.333884960804412e-06,4.299573161816131e-07,-2.3670860215713828e-06,-4.734172043142766e-07,0.05959322033898329,8.05734736834595,-21.29,31.78,0.4041529600165721,0.0013071525414345517,0.40232364331436715,0.4068475393112334,0.007711168092230639,0.00366180910476111,0.0027406570367758715,0.014158576586911584,0.0093464897430669,0.017531860033033014,5.848332932878453e-06,0.06375684356250683,-0.7612051799961574,0.0025119497349027835,-0.7654884610357803,-0.7572990153831352,0.6009407138114532,2.1342193729842682,-3.64532470703125,4.52423095703125,33.65999999999998,0.007947194142390564,33.65,33.68,0.13559322033898305,0.0007719298245614618,0,1,0
0,0.003070497360985704,0.004297471541104191,0.0,0.023393819832631935,-0.000299560576327849,0.005273182410884234,-0.010320797981295449,0.02339380875760302,-2.0611361276267642e-07,3.6282300254171114e-06,-7.101258064714148e-06,1.6096184946685404e-05,-2.0611361276267642e-07,3.6282300254171114e-06,-7.101258064714148e-06,1.6096184946685404e-05,0.012033898305084514,5.453722280306847,-12.36,10.78,0.40388876416804387,0.001409580029990757,0.40157430307933173,0.4057871726890343,0.015799858431091898,0.002220357073251539,0.01161708127823946,0.018690372652194497,0.01016440801836326,0.018252060760322316,1.2346559069564833e-07,0.06384518026371333,-0.7701124564069193,0.00244911267901267,-0.77396574232046,-0.7659907336572732,-0.11552697636494531,3.1300804341853907,-3.90472412109375,5.34515380859375,33.675555555555555,0.008314794192832283,33.66,33.68,0.18983050847457628,0.0008255933952529671,0,1,0
0,0.027949849927222437,0.009356969148199182,0.005504428195913397,0.05298012138566645,0.027949836695291996,0.00935696471845215,0.00550442559002424,0.05298009630398331,1.923097454282047e-05,6.438089505150246e-06,3.7873376345142126e-06,3.64531247321993e-05,1.923097454282047e-05,6.438089505150246e-06,3.7873376345142126e-06,3.64531247321993e-05,8.503999999999994,132.36042461528666,-310.99,231.55,0.3876762671025133,0.006738111454615824,0.3772183009530492,0.40414932747008125,0.004376619657368062,0.0027855511190580566,0.0011610465645700318,0.010419190331276761,2.6792376519105265e-07,1.800530073788804e-07,8.942417653590162e-08,7.127257120459474e-07,-0.7772625103429771,0.0015817142089330142,-0.7795126614778316,-0.7743646382037912,-0.15345116702853598,3.3306562662628765,-4.15496826171875,5.99212646484375,33.70368421052632,0.012230473724865996,33.68,33.71,0.08135593220338982,0.0007368421052631857,0,1,0
0,0.03509541038516901,0.007483431285757415,0.012384963440805145,0.056420389008112325,0.0350953937704096,0.007483427742974778,0.01238495757755454,0.05642036229774846,2.4147497945227522e-05,5.148996396190985e-06,8.521509677656977e-06,3.882021075377068e-05,2.4147497945227522e-05,5.148996396190985e-06,8.521509677656977e-06,3.882021075377068e-05,-3.868809523809534,105.17281878169631,-275.3,212.18,0.3867039244616019,0.004011539572990938,0.3780614950108903,0.3918063784318856,0.004938734159508158,0.0032004257213200057,0.0009043939776939391,0.00918515383573298,0.00711726226012407,0.015041110847718578,9.38021565265873e-07,0.06008028420185796,-0.780141370656677,0.00021352721776747813,-0.780377355726116,-0.7796702495360198,0.12199458649968982,2.768068377541255,-3.26995849609375,4.52728271484375,33.702222222222225,0.021227747971713305,33.68,33.73,0.13605442176870747,-0.0003095975232199873,0,1,0
0,0.03782890193824164,9.728519695853779e-05,0.03715489032241543,0.037842943846904606,0.03782888402940125,9.728515090208534e-05,0.037154872732663616,0.03784292593141665,2.6028284661686925e-05,6.69373592693512e-08,2.5564529032970932e-05,2.6037946237285214e-05,2.6028284661686925e-05,6.69373592693512e-08,2.5564529032970932e-05,2.6037946237285214e-05,-2.84691525423729,16.70366318220894,-38.39,24.19,0.39090074269708985,0.0010124699022969455,0.3891469441454607,0.39245295428544946,0.006968531524995216,0.0016041823492012513,0.004529967817183803,0.008975463636541704,0.004068721278123992,0.009868673088393584,2.2943805363800918e-06,0.040248904921056844,-0.777622118611523,0.0014262997306694976,-0.7796796676943909,-0.7750794592343997,0.4984657697118368,2.320537049870458,-2.95562744140625,4.33197021484375,33.68055555555555,0.023914714722256602,33.66,33.73,0.21694915254237288,-0.003911248710010437,0,1,0
0,0.03759189729067203,0.0003312236320531051,0.03715489032241543,0.037842943846904606,0.037591879494033864,0.00033122347524625284,0.037154872732663616,0.03784292593141665,2.586521293300841e-05,2.2789937164528022e-07,2.5564529032970932e-05,2.6037946237285214e-05,2.586521293300841e-05,2.2789937164528022e-07,2.5564529032970932e-05,2.6037946237285214e-05,-1.2993898305084748,14.409810675213249,-36.21,21.11,0.39248085529423593,0.0012153089680028237,0.39029656386744255,0.3946564034188243,0.0029359473818292734,0.0012656846298126027,0.0011086215915649964,0.005233190049592129,0.00032754803096778014,0.0013788164477160348,3.070279337956394e-07,0.006177329087207181,-0.771653166109495,0.0018335780664942717,-0.7747352693563982,-0.7687774415579746,-0.10512330691808507,1.9567611651699368,-2.58941650390625,4.052734375,33.65894736842103,0.0030689220499179686,33.65,33.66,0.21694915254237288,-0.0002982456140350284,0,1,0
0,0.037594870127190864,0.00033037467634426226,0.03715489032241543,0.037842943846904606,0.03759485232914516,0.0003303745199393198,0.037154872732663616,0.03784292593141665,2.5867258401716116e-05,2.2731524523074642e-07,2.5564529032970932e-05,2.6037946237285214e-05,2.5867258401716116e-05,2.2731524523074642e-07,2.5564529032970932e-05,2.6037946237285214e-05,-0.2310884353741497,15.10393252523571,-34.47,24.33,0.3934913473537995,0.0013123704312739519,0.3910854805230003,0.39538649396636105,0.00041960810988059765,0.0002591933856872308,0.00011932807360807265,0.0009827762955284993,2.5064049421178557e-07,3.461495934326009e-08,2.0584267725141242e-07,3.0447871212507804e-07,-0.7668592732645255,0.0008690268334244107,-0.7685101378606061,-0.7656655621986472,-0.1355750980803156,2.1938024028664773,-3.35845947265625,4.095458984375,33.6411111111111,0.009938079899997088,33.63,33.65,0.21768707482993196,0.00033023735810106946,0,1,0
0,0.03757614758230678,0.00033524597443329606,0.03715489032241543,0.037842943846904606,0.03757612979312467,0.00033524581572219917,0.037154872732663616,0.03784292593141665,2.5854376300918472e-05,2.3066695587622904e-07,2.5564529032970932e-05,2.6037946237285214e-05,2.5854376300918472e-05,2.3066695587622904e-07,2.5564529032970932e-05,2.6037946237285214e-05,-0.594542372881356,13.184775312640516,-31.2,18.67,0.39404422721209614,0.0017843168104568405,0.39110175920028534,0.3971145809063179,0.00010738196105542526,0.0001110895730175264,2.200779440759151e-05,0.0003827619085487304,0.00021498823010807433,0.0008925755032869607,2.4014300798944066e-07,0.004001557924652444,-0.7651007025888411,0.00023429687730111684,-0.765578614014087,-0.7647935017440229,-0.39348129007419935,1.7955984201557043,-3.18145751953125,3.42559814453125,33.625789473684215,0.015326547135327436,33.61,33.65,0.18983050847457628,-0.001754385964912181,0,1,0
0,0.03757330124946968,0.00033588898339491016,0.03715489032241543,0.037842943846904606,0.037573283461635076,0.0003358888243794022,0.037154872732663616,0.03784292593141665,2.585241787343233e-05,2.3110938003964316e-07,2.5564529032970932e-05,2.6037946237285214e-05,2.585241787343233e-05,2.3110938003964316e-07,2.5564529032970932e-05,2.6037946237285214e-05,0.1203389830508473,11.664764088528441,-26.48,18.4,0.3959690453750352,0.0008367798002142225,0.3943146037794484,0.3973462328693412,0.0005186099144973528,0.00015081061600335992,0.00029772816137142575,0.0007461761089763746,0.0007136543700307365,0.0019992934623331376,1.8454537625191975e-06,0.006524999639996482,-0.764510173393861,0.00017902258757805645,-0.7647701516188377,-0.7641882560476453,0.6130293071769314,2.127021843679944,-2.68707275390625,4.05120849609375,33.61444444444445,0.010657403385140138,33.59,33.63,0.21694915254237288,-0.0016924664602684578,0,1,0
0,0.037580828218527824,0.000334133175977771,0.03715489032241543,0.037842943846904606,0.03758081042712979,0.0003341330177934921,0.037154872732663616,0.03784292593141665,2.585759682611787e-05,2.299012917018156e-07,2.5564529032970932e-05,2.6037946237285214e-05,2.585759682611787e-05,2.299012917018156e-07,2.5564529032970932e-05,2.6037946237285214e-05,0.3053220338983047,11.949851505269384,-29.33,20.6,0.3968712737807301,0.0008241785804015677,0.39529633984515583,0.3985629965340867,0.0005520750487252432,0.000213773058711108,0.00021541295627130797,0.0008474425193825865,1.5999237093157172e-06,2.3794664901216073e-06,2.8819274009404816e-07,1.0890233122690801e-05,-0.7637317291992596,0.0002556821916663793,-0.7641432030654759,-0.7633100753130649,-0.19414217028971456,2.1101739447674825,-2.972412109375,3.497314453125,33.60222222222223,0.009749960430433753,33.59,33.61,0.21694915254237288,0.001589267285861397,0,1,0
0,0.0376697603067271,0.0002986084503396482,0.03715489032241543,0.037842943846904606,0.037669742473227116,0.00029860830897337294,0.037154872732663616,0.03784292593141665,2.5918786804906785e-05,2.054584021633629e-07,2.5564529032970932e-05,2.6037946237285214e-05,2.5918786804906785e-05,2.054584021633629e-07,2.5564529032970932e-05,2.6037946237285214e-05,-1.1986054421768706,11.246048758611128,-32.13,19.37,0.39584934582747183,0.0011940061380598262,0.3933470192946091,0.3983016817517539,7.802937935484491e-05,5.0662692360556355e-05,2.0656071584382095e-05,0.00019060692331491987,3.593319531060568e-07,1.0377999819454601e-07,2.2767281915065003e-07,5.011893642525508e-07,-0.7628580594427175,0.00023376511659909673,-0.7632609802641397,-0.7624922617540372,-0.04688257025193798,2.420011389525861,-3.51409912109375,4.07562255859375,33.59947368421054,0.009986139979477105,33.59,33.61,0.21768707482993196,0.000666666666666534,0,1,0
0,0.03766163244518114,0.0003031140455191512,0.03715489032241543,0.037842943846904606,0.037661614615529034,0.00030311390201985164,0.037154872732663616,0.03784292593141665,2.5913194406418603e-05,2.085584898712717e-07,2.5564529032970932e-05,2.6037946237285214e-05,2.5913194406418603e-05,2.085584898712717e-07,2.5564529032970932e-05,2.6037946237285214e-05,1.6149152542372913,10.790620844657509,-23.31,18.77,0.39693014500061874,0.001471051800069082,0.3942926922829705,0.399701153229725,9.41973591740421e-06,3.5810925979793438e-06,5.9861781541425765e-06,1.8298274427156225e-05,3.679667106906921e-06,6.419988180060308e-06,3.770428693168474e-07,2.8710544072110364e-05,-0.7621366556008049,0.00019833286229858804,-0.7624552277599295,-0.7618008494139625,0.8012161467928269,2.591551388251461,-2.960205078125,4.23736572265625,33.59444444444446,0.008314794192829324,33.59,33.61,0.21694915254237288,-0.0008255933952526737,0,1,0
0,0.037777414939810475,0.0002019736562453916,0.03715489032241543,0.037842943846904606,0.03777739705534491,0.0002019735606276575,0.037154872732663616,0.03784292593141665,2.5992858884493343e-05,1.3896855445339922e-07,2.5564529032970932e-05,2.6037946237285214e-05,2.5992858884493343e-05,1.3896855445339922e-07,2.5564529032970932e-05,2.6037946237285214e-05,0.39993220338982977,10.230946275409666,-31.12,20.76,0.3981944193620327,0.0011656024414135363,0.39594427895789414,0.40059444408132955,4.013016898654113e-06,1.6582008543156572e-06,1.9352413747501668e-06,7.134890922737521e-06,8.016814136578393e-07,2.8624096899542896e-07,4.361448040506613e-07,1.3534964967438633e-06,-0.7612842569412103,0.00031074062903101336,-0.7617569724970843,-0.760738773112572,-0.9914559111110034,1.5438870524631891,-2.886962890625,2.85491943359375,33.58263157894739,0.009647527778855908,33.57,33.59,0.21694915254237288,0.00021052631578950657,0,1,0
0,0.03779180473359805,0.00018047503494968088,0.03715489032241543,0.037842943846904606,0.03779178684232012,0.0001804749495097564,0.037154872732663616,0.03784292593141665,2.6002759823451014e-05,1.241763663049797e-07,2.5564529032970932e-05,2.6037946237285214e-05,2.6002759823451014e-05,1.241763663049797e-07,2.5564529032970932e-05,2.6037946237285214e-05,-1.9883050847457642,7.919377982880776,-26.6,15.43,0.3984326567208616,0.00137656593774777,0.3960648308957524,0.4008671960965803,1.1154598164331975e-06,3.210906815056578e-07,7.837783262852635e-07,1.7991065710393399e-06,4.635768899557273e-07,1.2349932020701833e-07,3.2984119208980003e-07,7.353762708806088e-07,-0.7601298113114001,0.0003137204092400717,-0.7606710628385075,-0.759658720847408,0.6847015863762411,2.6484129669065575,-3.14788818359375,5.328369140625,33.56555555555556,0.01571348402637018,33.55,33.59,0.24406779661016947,0.0009907120743035606,0,1,0
0,0.037814860029578574,0.0001361413555710404,0.03715489032241543,0.037842943846904606,0.03781484212738591,0.00013614129111942712,0.037154872732663616,0.03784292593141665,2.601862308608868e-05,9.367245083708964e-08,2.5564529032970932e-05,2.6037946237285214e-05,2.601862308608868e-05,9.367245083708964e-08,2.5564529032970932e-05,2.6037946237285214e-05,-0.8332993197278916,11.80975779813218,-37.89,16.25,0.3984043546108901,0.0013573255918191327,0.39575988485535774,0.40063334939397277,1.2783509440986758e-06,2.3174744348746793e-06,4.979857054606541e-07,1.0771193376712615e-05,1.6041489005267236e-05,5.010490189680697e-05,2.826995992729663e-07,0.00021599447538107192,-0.7595197046760068,7.21544965693677e-05,-0.7596869003572893,-0.7594406558470522,-0.5566874659338663,3.666936323662478,-5.27801513671875,6.072998046875,33.57000000000001,7.105427357601002e-15,33.57,33.57,0.19047619047619047,0.0,0,1,0
0,0.037786776212252494,0.00018839197382646244,0.03715489032241543,0.037842943846904606,0.037786758323355166,0.00018839188463852576,0.037154872732663616,0.03784292593141665,2.5999299934892183e-05,1.2962363884464988e-07,2.5564529032970932e-05,2.6037946237285214e-05,2.5999299934892183e-05,1.2962363884464988e-07,2.5564529032970932e-05,2.6037946237285214e-05,2.7023389830508453,14.635259893704548,-32.9,27.52,0.3995277201843163,0.0008316525233644601,0.39811981293768495,0.40122949286769627,0.000928953647104976,0.0008110634662975903,1.9553850401204263e-05,0.0019880116371522225,0.0012304018597251146,0.004225406379136293,2.415550733540772e-06,0.018511692085266738,-0.7604578587704828,0.0004889498347804295,-0.7613252538536753,-0.7597434015371454,0.44993306774550107,2.155907905856278,-3.20892333984375,4.86907958984375,33.563333333333325,0.009428090415822108,33.55,33.57,0.21694915254237288,-0.0014860681114553407,0,1,0
0,0.035304584222775624,0.008316033399648107,0.013073016965294318,0.05435622843464479,0.035304567508989936,0.00831602946269762,0.01307301077630757,0.054356202701489366,2.4291420605152807e-05,5.721870672733541e-06,8.994926881971256e-06,3.739995914082785e-05,2.4291420605152807e-05,5.721870672733541e-06,8.994926881971256e-06,3.739995914082785e-05,-3.39396610169492,54.226737374693094,-162.68,185.23,0.3992800820760829,0.0013042079609893165,0.3971273599221497,0.401292395013914,0.002336647108406297,0.0007821209746832492,0.001132122879608005,0.0034730901715009275,0.001633262456534694,0.005507865082116336,1.8777350443976992e-07,0.02370237886505336,-0.7624627688014389,0.0006199201474217708,-0.7634588717015784,-0.761442480356268,0.04672418275383959,3.0339528721437206,-3.81317138671875,6.08978271484375,33.56333333333334,0.009428090415822104,33.55,33.57,0.05423728813559322,0.0014860681114553407,0,1,0
0,0.017608553463457646,0.011140228866191133,0.0,0.0516040143366881,0.017608545127271415,0.011140223592218878,0.0,0.05160398990647725,1.2115615800206182e-05,7.665066477450167e-06,0.0,3.550629032357074e-05,1.2115615800206182e-05,7.665066477450167e-06,0.0,3.550629032357074e-05,3.2382711864406835,91.21872554968917,-236.6,270.19,0.3968315064804986,0.004179789589999398,0.3897189093279677,0.4031991656281423,0.0030790790783955715,0.0013484039331389842,0.0007856668335639074,0.004890257443300131,0.002828413656075572,0.010921059126405551,3.035039133694739e-07,0.04894560680632014,-0.7643699586770235,0.0004446998795361635,-0.7650157936698831,-0.7635664951201148,0.36901563923648806,3.170166401440243,-3.12652587890625,6.55670166015625,33.554210526315785,0.015326547135327436,33.53,33.57,0.13559322033898305,0.0011929824561401634,0,1,0
0,0.029787568910538166,0.00427111581659783,0.01926549868569689,0.043347372042818,0.029787554808600566,0.004271113794579557,0.01926548956508484,0.04334735152144089,2.049542236908881e-05,2.938753508598654e-06,1.3255681720799745e-05,2.9825283871799426e-05,2.049542236908881e-05,2.938753508598654e-06,1.3255681720799745e-05,2.9825283871799426e-05,3.899897959183677,62.73079143616215,-143.26,138.8,0.3953316962335818,0.0025022038468620186,0.3914850192014085,0.40170216610925685,0.0009867305733975873,0.0005703825057041421,0.0002948518078364411,0.002148090032907617,4.733054830378002e-07,2.3605190369143225e-07,1.9878762414632378e-07,9.153446440673951e-07,-0.7652602715977347,7.984406608501291e-05,-0.7653359173629506,-0.7650646927214206,0.10007285598489842,2.574090759556716,-3.6407470703125,4.62799072265625,33.57333333333334,0.010000000000001563,33.55,33.59,0.05442176870748299,0.0013415892672860716,0,1,0
0,0.025611397746019327,0.00030792455724154235,0.02476992688161029,0.026146033930588636,0.025611385621151648,0.00030792441146486376,0.02476991515510908,0.02614602155261514,1.762199580113079e-05,2.118683762825449e-07,1.7043019355313955e-05,1.7989853763942512e-05,1.762199580113079e-05,2.118683762825449e-07,1.7043019355313955e-05,1.7989853763942512e-05,-5.095389830508475,15.618647061588687,-39.65,42.52,0.39535667166301125,0.0013690352585228162,0.3928125835521748,0.3977379968793983,0.00027884597841437486,0.00030398733997277967,6.088475028795634e-05,0.0012260688108811557,0.0008255073738313493,0.002503427391017098,7.001595297611088e-07,0.010344529450638431,-0.7646648222330232,0.00041291496303565736,-0.765225553646322,-0.7638933781453254,0.12948530779287182,1.9463706570918837,-2.80303955078125,3.77349853515625,33.59947368421053,0.01503458616535258,33.57,33.61,0.21694915254237288,0.002315789473684049,0,1,0
0,0.02699322908659232,0.004645903409460455,0.019953552210186066,0.0460995861407747,0.026993216307542332,0.004645901210011413,0.01995354276383787,0.046099564316453005,1.8572768825036937e-05,3.196627188638925e-06,1.372909892511402e-05,3.1718952689056526e-05,1.8572768825036937e-05,3.196627188638925e-06,1.372909892511402e-05,3.1718952689056526e-05,8.68006779661017,76.42508471851825,-221.74,317.07,0.3976124124862397,0.0010425667274018041,0.39580650470119155,0.39946936000267397,0.0008427823375642558,0.00038778188359769444,0.0002924812352842381,0.0014122016988829538,2.896852416581537e-06,5.269397542838376e-06,2.492824546845504e-07,1.7411077592587032e-05,-0.7627590049131718,0.0006469659367441082,-0.7637850318360118,-0.7616763048979663,-0.23031255453963698,1.846576893949751,-2.69012451171875,3.59954833984375,33.61000000000001,7.105427357601002e-15,33.61,33.61,0.13559322033898305,0.0,0,1,0
0,0.02474668183010726,0.008728374148884131,0.006192481720402572,0.04953985376322058,0.02474667011461067,0.008728370016724576,0.00619247878877727,0.04953983031021816,1.7027025530843883e-05,6.0055829099073835e-06,4.260754838828489e-06,3.408603871062791e-05,1.7027025530843883e-05,6.0055829099073835e-06,4.260754838828489e-06,3.408603871062791e-05,-8.220237288135591,139.14769404818296,-220.61,299.08,0.39962532829006553,0.004825279719330379,0.39128447765077684,0.40868816422528087,0.002528354249591239,0.0031364164386399386,7.468329505026729e-05,0.007529416544214686,0.0043000753290731095,0.018232031349761684,1.7138288104824595e-07,0.08165202942570034,-0.7604083805709514,0.000678888937736847,-0.7615454560372723,-0.7593145229477366,0.7132797619840939,5.565709005674509,-9.0240478515625,9.8236083984375,33.61947368421053,0.009986139979480653,33.61,33.63,0.13559322033898305,0.0015789473684212996,0,1,0
0,0.027690643883523516,0.007508820118763923,0.009632749342848445,0.043347372042818,0.027690630774305617,0.0075088165639618214,0.00963274478254242,0.04334735152144089,1.9052627079750065e-05,5.166465255683665e-06,6.627840860399872e-06,2.9825283871799426e-05,1.9052627079750065e-05,5.166465255683665e-06,6.627840860399872e-06,2.9825283871799426e-05,3.35074829931972,54.20772865282727,-114.17,112.9,0.40347576674137253,0.00198314480247872,0.39990294590111497,0.40656087231737925,0.0031001631523094554,0.001707771342519375,0.0009577452070558068,0.006405361808001807,0.00011220984683706717,0.0004582741560447447,1.7384043568546836e-07,0.0020017198304438377,-0.7582378055883816,0.0005798664050077788,-0.759198147636921,-0.7572963669779519,-1.6185396066670383,3.7846276458474413,-9.07135009765625,2.37274169921875,33.63,0.01333333333333305,33.61,33.65,0.10884353741496598,-0.0006604747162023736,0,1,0
0,0.02971267873100192,0.00490746795140505,0.01926549868569689,0.04197126499383966,0.02971266466451859,0.004907465628126932,0.01926548956508484,0.04197124512393483,2.0443893965898138e-05,3.3765974232032876e-06,1.3255681720799745e-05,2.8878449463170872e-05,2.0443893965898138e-05,3.3765974232032876e-06,1.3255681720799745e-05,2.8878449463170872e-05,-3.5640000000000027,73.96081908411523,-233.45,115.37,0.40070659008142806,0.0017160305560131566,0.3980337441788,0.4036599149150892,0.00035915024862997704,0.00022195939851918584,0.00011098562938149119,0.0008457976547997118,1.1825573687784133e-05,3.429545662901713e-05,1.9587914312432786e-07,0.00014839855990796168,-0.7562687026818171,0.0005585351775382495,-0.7571874974440327,-0.7553624763362069,1.0088085869325454,0.4175582416850026,0.0885009765625,2.056884765625,33.6511111111111,0.006573421981220488,33.63,33.66,0.13559322033898305,0.0008462332301339906,0,1,0
0,0.025653238838724706,0.0007673543232047698,0.023393819832631935,0.029586301553034506,0.025653226694048823,0.0007673539599262904,0.02339380875760302,0.029586287546380288,1.765078468517691e-05,5.279803467030914e-07,1.6096184946685404e-05,2.035693978551389e-05,1.765078468517691e-05,5.279803467030914e-07,1.6096184946685404e-05,2.035693978551389e-05,1.4762372881355923,16.264423911225176,-33.26,42.36,0.40396672060105354,0.0011096145352017283,0.40224573393388785,0.4058005689277604,0.0007210423437393861,0.00024651258600485765,0.00010447008357121372,0.00101810564266522,0.0007079197885284334,0.0020575838024467314,7.422230448063394e-07,0.007650345920446359,-0.7544763307335337,0.00043766390675019904,-0.7552607733039016,-0.7538409953595094,0.41991771006998296,3.443492478420089,-4.90875244140625,5.62591552734375,33.652105263157885,0.004076824574954365,33.65,33.66,0.21694915254237288,0.0002456140350876704,0,1,0
0,0.026974506541708233,0.007452140281190746,0.010320802867337619,0.058484549581579844,0.02697449377152183,0.007452136753221837,0.010320797981295449,0.058484521894007546,1.8559886724239296e-05,5.1274665305993046e-06,7.101258064714148e-06,4.024046236671351e-05,1.8559886724239296e-05,5.1274665305993046e-06,7.101258064714148e-06,4.024046236671351e-05,-1.79047619047619,24.251506056980176,-73.41,80.4,0.403992179922563,0.001803305522337028,0.39876002154571644,0.40612634845421086,0.00023847973694505467,0.00014414054993679672,6.899621998108261e-05,0.0005458430851765798,4.239345682605243e-07,4.1074276380254434e-07,1.3475261756825188e-07,1.5375945740091906e-06,-0.7536749394064866,6.586122652321118e-05,-0.7537992946681791,-0.7536000986290721,-0.979044419660166,2.285675414234717,-4.09393310546875,3.24554443359375,33.65444444444443,0.004969039949998545,33.65,33.66,0.21768707482993196,-0.0008255933952526737,0,1,0
0,0.022555985949070344,0.0017241395289670077,0.012384963440805145,0.033026569175480386,0.022555975270686025,0.0017241387127302726,0.01238495757755454,0.03302655354014544,1.5519710935989774e-05,1.186299156387992e-06,8.521509677656977e-06,2.2724025807085277e-05,1.5519710935989774e-05,1.186299156387992e-06,8.521509677656977e-06,2.2724025807085277e-05,0.6518983050847423,40.06046373124679,-139.01,92.87,0.4042138499619889,0.003540944722992283,0.39542575713799966,0.4083576972678918,0.0024039588677779453,0.0013650008552741819,4.7596146350089636e-05,0.003946086867118366,0.002716118225586532,0.00575824452175406,4.185792866144133e-07,0.020002091548678897,-0.7542335599240225,0.0002135462890645327,-0.7544886048524891,-0.7538428873209151,0.43052928915094796,1.895022411833153,-2.75115966796875,3.90625,33.65052631578946,0.011458705819512057,33.63,33.66,0.08135593220338982,-0.0006842105263156534,0,1,0
0,0.023198561400006673,0.00048017772751019795,0.020641605734675238,0.025457980406099465,0.02319855041741641,0.00048017750018596327,0.020641595962590898,0.02545796835386211,1.59618368211367e-05,3.3038766497218337e-07,1.4202516129428297e-05,1.7516436559628233e-05,1.59618368211367e-05,3.3038766497218337e-07,1.4202516129428297e-05,1.7516436559628233e-05,-0.071830508474576,10.248893187290658,-27.48,27.77,0.4071679476579322,0.001563220021056917,0.40459226609724025,0.4097400443386326,0.004488298206679581,0.0009248715170668225,0.0027614368537902823,0.005592327473001288,0.003442940025217655,0.009923908371900563,5.053185140185823e-07,0.03955244880063898,-0.7538626115422722,0.0005656697056174995,-0.7544816695480059,-0.7526659595263767,0.7625545509994085,1.1878934957090752,-1.66778564453125,3.01971435546875,33.649444444444434,0.011290223018276403,33.63,33.66,0.18983050847457628,-0.0007946336429306985,0,1,0
0,0.02339850046885299,9.81818536733206e-05,0.022705766308142764,0.024081873357121114,0.0233984893916082,9.818180719237472e-05,0.022705755558849988,0.02408186195635605,1.6099405471884766e-05,6.755430649806663e-08,1.5622767742371126e-05,1.656960215099968e-05,1.6099405471884766e-05,6.755430649806663e-08,1.5622767742371126e-05,1.656960215099968e-05,0.07264406779661027,8.857087124497504,-19.03,14.52,0.40690301130525386,0.0011638766047031397,0.4046104206901619,0.40871362053770005,0.001077622064433679,0.000659032123872941,0.0003086231589178619,0.0024962951877792396,3.0413181186178875e-07,5.003176300786225e-08,2.4704706930341047e-07,4.6681837579526375e-07,-0.7503734230385288,0.0012315533755753326,-0.7524399289982431,-0.7485226881130006,0.3924964859808893,1.707276937199767,-2.00347900390625,3.84368896484375,33.635555555555555,0.008958064164774383,33.63,33.65,0.21694915254237288,-0.001341589267285595,0,1,0
0,0.023538919555483418,0.0002806821086902035,0.023393819832631935,0.024081873357121114,0.023538908411761848,0.00028068197581055656,0.02339380875760302,0.02408186195635605,1.6196021227867295e-05,1.931241312887738e-07,1.6096184946685404e-05,1.656960215099968e-05,1.6196021227867295e-05,1.931241312887738e-07,1.6096184946685404e-05,1.656960215099968e-05,0.9296938775510207,10.098291711201473,-24.72,17.26,0.40700298045995387,0.0013048159751794068,0.4049228824320554,0.4086521711548109,0.0003496157571198535,0.0006264505758963279,4.314280108794942e-05,0.002606501102659121,0.0019397666720506928,0.008212675563917316,2.441837450677109e-07,0.03678318446194411,-0.7487719509415678,0.000883813767984344,-0.7509679507319978,-0.7480212495191645,-0.5447974389837694,2.144080225463922,-3.82080078125,3.204345703125,33.62157894736843,0.009874559494366657,33.61,33.63,0.21768707482993196,-0.0015438596491230484,0,1,0
0,0.02389591294509701,0.0010925866590265464,0.020641605734675238,0.029586301553034506,0.023895901632368727,0.0010925861417775912,0.020641595962590898,0.029586287546380288,1.6441651555239077e-05,7.517573897633034e-07,1.4202516129428297e-05,2.035693978551389e-05,1.6441651555239077e-05,7.517573897633034e-07,1.4202516129428297e-05,2.035693978551389e-05,-0.061389830508475,10.658696287208276,-25.7,16.97,0.4067788259818665,0.001259738931135277,0.40406793408267055,0.40902744943330327,0.008148138593286234,0.004158281812660585,0.0031585622292337346,0.014530411286754629,0.010710568342291577,0.021510225204622414,2.342616162720468e-06,0.07416856256766091,-0.7580792271085712,0.004453219537775679,-0.7658866337264383,-0.7515005591793512,-0.11855174841956252,1.9753067980916283,-2.60009765625,3.8482666015625,33.61444444444445,0.015713484026367724,33.59,33.63,0.21694915254237288,-0.0018163054695562342,0,1,0
0,0.022565347221512298,0.0033167650123626284,0.015137177538761842,0.034402676224458736,0.022565336538696298,0.0033167634421501246,0.01513717037256666,0.0344026599376515,1.5526151986388613e-05,2.2821096958785026e-06,1.0415178494914085e-05,2.367086021571383e-05,1.5526151986388613e-05,2.2821096958785026e-06,1.0415178494914085e-05,2.367086021571383e-05,-0.3291525423728802,50.9002169050067,-147.6,209.9,0.3992774597635799,0.012522735130350952,0.37579463297839133,0.40944407462628185,0.017013608972969854,0.005931073959114441,0.0070933232939376385,0.025304361394933392,0.009289581946491175,0.02827608330796513,8.09673269541733e-08,0.11580400440665156,-0.775700449872556,0.005136737449905494,-0.7835689859467458,-0.7669071237119309,-0.1636443599577873,1.6643270609223082,-2.34832763671875,3.497314453125,33.592105263157904,0.01435598073366877,33.57,33.61,0.13559322033898305,0.0010877192982456719,0,1,0
0,0.027717399412192284,0.011959513713186116,0.005504428195913397,0.05435622843464479,0.02771738629030787,0.011959508051350588,0.00550442559002424,0.054356202701489366,1.9071036298119706e-05,8.228777770244386e-06,3.7873376345142126e-06,3.739995914082785e-05,1.9071036298119706e-05,8.228777770244386e-06,3.7873376345142126e-06,3.739995914082785e-05,9.810711864406779,108.76382346821693,-282.75,242.0,0.39684729647442574,0.007713398824384828,0.3792027643622379,0.4114474928399601,0.025271823703064522,0.008550518921020617,0.008005617419350302,0.035763039927038665,0.037578687794049284,0.0574419490846678,6.759690952540254e-07,0.1966032137425563,-0.7875977558418755,0.0015317338674001074,-0.7890780953292,-0.784244946292194,-0.02893725426863559,4.9916709108479855,-6.524658203125,6.93511962890625,33.5988888888889,0.009938079899997088,33.59,33.61,0.18983050847457628,0.0006604747162021389,0,1,0
0,0.03428097968271233,0.005088964554890856,0.01926549868569689,0.043347372042818,0.034280963453518304,0.0050889621456891914,0.01926548956508484,0.04334735152144089,2.358712656052898e-05,3.5014766826745336e-06,1.3255681720799745e-05,2.9825283871799426e-05,2.358712656052898e-05,3.5014766826745336e-06,1.3255681720799745e-05,2.9825283871799426e-05,-11.626768707483,105.63443253749193,-243.25,348.22,0.4025596962686543,0.0037510131186437863,0.3957578971749196,0.40829127548265615,0.03082952731175039,0.004567914405409647,0.024980263512425983,0.03915261979998526,0.01867822299328712,0.03395117347520799,1.4086549925407255e-06,0.10768392376462588,-0.7863489192507551,0.002072842287450122,-0.7889526510976073,-0.7823163216937216,0.39703605710998063,1.8545473486774298,-2.423095703125,3.90472412109375,33.619473684210526,0.017613895295453846,33.59,33.63,0.10884353741496598,0.0024561403508771406,0,1,0
0,0.03422949268428117,0.005441963799115872,0.022705766308142764,0.04541153261628553,0.03422947647946195,0.005441961222798412,0.022705755558849988,0.045411511117699976,2.3551700783335426e-05,3.7443588268363993e-06,1.5622767742371126e-05,3.124553548474225e-05,2.3551700783335426e-05,3.7443588268363993e-06,1.5622767742371126e-05,3.124553548474225e-05,1.7671186440677962,56.220828966352755,-134.08,142.6,0.4003304531869978,0.006832819938771208,0.38562830807614357,0.4103860784870742,0.017683664364538092,0.00823056452530459,0.006087487415702343,0.029863062224446804,0.0004458800160927972,0.0018364188456829504,1.1093614149526587e-07,0.008017628116696485,-0.7756063829494283,0.003925285642345081,-0.7817061241886397,-0.7689161968781636,0.7619963719021486,1.8514323108746715,-3.02581787109375,3.77044677734375,33.63444444444444,0.008314794192829324,33.63,33.65,0.10847457627118644,0.0004953560371516042,0,1,0
0,0.03557422682021051,0.0017458999028544231,0.029586301553034506,0.04197126499383966,0.03557420997877146,0.0017458990763159618,0.029586287546380288,0.04197124512393483,2.4476948969005706e-05,1.2012714441591567e-06,2.035693978551389e-05,2.8878449463170872e-05,2.4476948969005706e-05,1.2012714441591567e-06,2.035693978551389e-05,2.8878449463170872e-05,-0.11271186440677962,54.01026844084898,-114.63,168.3,0.4056065641343258,0.007099370929339439,0.3898255869234039,0.4125571241671436,0.010470065157279666,0.0033596306431530414,0.004296434042849892,0.014498882073889876,0.009530924284500857,0.02766870945110549,5.722740447633434e-07,0.12003301283730858,-0.7608779525835397,0.004359996389227377,-0.7680728799577342,-0.7538506487382572,-1.0301254419225585,2.1227944708129587,-4.35638427734375,3.08380126953125,33.66,0.011547005383792955,33.65,33.68,0.13559322033898305,0.0016511867905056408,0,1,0
0,0.03453373403864711,0.0003958943985093541,0.03371462269996956,0.036466836797926255,0.034533717689794956,0.0003958942110862692,0.03371460673889847,0.03646681953391059,2.376103492129748e-05,2.723962783057144e-07,2.3197443011399553e-05,2.5091111828656657e-05,2.376103492129748e-05,2.723962783057144e-07,2.3197443011399553e-05,2.5091111828656657e-05,-0.2637966101694915,12.677580364203408,-29.22,25.75,0.4114131750528991,0.0011748772078907662,0.4091602773688497,0.41413742911787355,0.0038222207216562186,0.0023347092354615807,0.001046710145323213,0.008671402308503249,9.549110921454548e-07,1.539073920477818e-06,3.5694568353838996e-07,7.315359265451515e-06,-0.7470544651475084,0.003386419598382204,-0.7530738882190134,-0.742007931043348,0.6223157972615055,1.5699989083379418,-1.86004638671875,3.43780517578125,33.65789473684209,0.004076824574954366,33.65,33.66,0.21694915254237288,0.0001052631578947159,0,1,0
0,0.02967055300501278,0.006973472542788337,0.021329659259164413,0.05298012138566645,0.029670538958472492,0.006973469241428809,0.02132964916134393,0.05298009630398331,2.0414909239103382e-05,4.7981178179709534e-06,1.4675933333742575e-05,3.64531247321993e-05,2.0414909239103382e-05,4.7981178179709534e-06,1.4675933333742575e-05,3.64531247321993e-05,-1.5875850340136057,31.84492963546422,-80.56,93.04,0.4172193624819878,0.002589705319121926,0.412965778579833,0.42205153748550434,0.00284428365511661,0.001018510524206241,0.0013173961940116151,0.004272040387909134,0.002288744538149188,0.007850796207971333,3.085194457685958e-07,0.03392993947009818,-0.7389211901152106,0.001391469411046431,-0.741578862305285,-0.7370593877131382,0.21705769427656832,2.480511448479906,-3.75823974609375,4.54254150390625,33.65999999999998,1.4210854715202004e-14,33.66,33.66,0.10884353741496598,0.0,0,1,0
0,0.02622041809539827,0.0026493322468708995,0.019953552210186066,0.03577878327343708,0.02622040568221006,0.0026493309926323262,0.01995354276383787,0.03577876633515756,1.8041034002246747e-05,1.8228806640362112e-06,1.372909892511402e-05,2.461769462434238e-05,1.8041034002246747e-05,1.8228806640362112e-06,1.372909892511402e-05,2.461769462434238e-05,11.085491525423729,27.541779757597908,-33.09,93.84,0.41736682548206033,0.0009478645454314471,0.4152930473332532,0.4188323459104478,0.0004894666849738219,0.000317438919037165,0.000128302102684477,0.001192840969855658,1.2838887365422765e-06,1.277869677689972e-06,1.9744679226243317e-07,4.637661253314301e-06,-0.7368288481069712,0.00023956504990183488,-0.7374164461991978,-0.7365875554070264,-0.4619498998296468,1.553666670237084,-2.42156982421875,2.95562744140625,33.65157894736841,0.011815760168757461,33.63,33.66,0.05423728813559322,0.0009824561403506816,0,1,0
0,0.02533160322813209,0.0010120570306192487,0.022017712783653588,0.027522140979566984,0.0253315912357238,0.00101205655149438,0.02201770236009696,0.027522127950121197,1.7429482379243993e-05,6.963487475746693e-07,1.514935053805685e-05,1.8936688172571062e-05,1.7429482379243993e-05,6.963487475746693e-07,1.514935053805685e-05,1.8936688172571062e-05,-12.649898305084735,40.91818469791528,-113.99,97.45,0.4138708735110307,0.001620000745145547,0.41085722118373935,0.41679642408924383,4.820598089433474e-05,2.9632987043419705e-05,1.447728005820807e-05,0.00011325954124354801,1.3254991375347141e-06,2.5067158441258225e-06,1.8579387260544283e-07,1.1365413101128172e-05,-0.7390189475829952,0.0009202915737535007,-0.7405182201959838,-0.7375592115940196,0.11536837585809029,2.622182155315755,-3.69415283203125,5.07965087890625,33.65555555555554,0.004969039949998543,33.65,33.66,0.05423728813559322,-0.0008255933952526737,0,1,0
0,0.025746219044736854,0.0013900152080130622,0.020641605734675238,0.028210194504056162,0.025746206856042383,0.0013900145499564148,0.020641595962590898,0.02821018114887423,1.7714759983057202e-05,9.564039574107656e-07,1.4202516129428297e-05,1.941010537688534e-05,1.7714759983057202e-05,9.564039574107656e-07,1.4202516129428297e-05,1.941010537688534e-05,2.437559322033898,28.133029230854405,-54.44,53.73,0.4132201449805663,0.0011256152034239643,0.41090875771398583,0.4148726870172557,7.925822971623369e-06,3.5639858913573237e-06,2.932723798694154e-06,1.3552444998065174e-05,1.921701008077022e-06,4.75464232954317e-06,3.190730730491119e-07,2.1771998977533798e-05,-0.7414769339140566,0.0003436365740485496,-0.7418054845933244,-0.7406766839562225,0.18275854901107902,2.5516276797818094,-3.73077392578125,4.05731201171875,33.66421052631578,0.008153649149911627,33.66,33.68,0.08135593220338982,7.01754385965022e-05,0,1,0
