,net_acc_mean,net_acc_std,net_acc_min,net_acc_max,ACC_x_mean,ACC_x_std,ACC_x_min,ACC_x_max,ACC_y_mean,ACC_y_std,ACC_y_min,ACC_y_max,ACC_z_mean,ACC_z_std,ACC_z_min,ACC_z_max,BVP_mean,BVP_std,BVP_min,BVP_max,EDA_mean,EDA_std,EDA_min,EDA_max,EDA_phasic_mean,EDA_phasic_std,EDA_phasic_min,EDA_phasic_max,EDA_smna_mean,EDA_smna_std,EDA_smna_min,EDA_smna_max,EDA_tonic_mean,EDA_tonic_std,EDA_tonic_min,EDA_tonic_max,Resp_mean,Resp_std,Resp_min,Resp_max,TEMP_mean,TEMP_std,TEMP_min,TEMP_max,BVP_peak_freq,TEMP_slope,0,1,2
0,0.035974041706062304,0.00031019735208860687,0.03577878327343708,0.036466836797926255,-0.035974024675344246,0.0003101972052359469,-0.03646681953391059,-0.03577876633515756,-2.475204274989096e-05,2.1343217930684292e-07,-2.5091111828656657e-05,-2.461769462434238e-05,-2.475204274989096e-05,2.1343217930684292e-07,-2.5091111828656657e-05,-2.461769462434238e-05,-1.7298983050847458,27.292969598070197,-66.26,38.21,5.244019977325067,0.005046804256490525,5.234070799614814,5.251708579543924,0.08017570287486121,0.018363007935197937,0.050774534082053936,0.11119474546334895,0.036319128534190365,0.047522925529186494,7.936811461384252e-07,0.14279122128075228,2.3260551388236164,0.012806138263785417,2.3023369866298777,2.345007332536686,0.2114452488704235,1.6381938324872638,-2.58941650390625,2.94342041015625,34.05444444444444,0.010657403385140138,34.03,34.07,0.16271186440677965,-0.001031991744066084,0,1,0
0,0.03586303472541523,0.00023939978657879464,0.03577878327343708,0.03715489032241543,-0.03586301774724982,0.0002393996732428968,-0.037154872732663616,-0.03577876633515756,-2.467566407793184e-05,1.6471971095520503e-07,-2.5564529032970932e-05,-2.461769462434238e-05,-2.467566407793184e-05,1.6471971095520503e-07,-2.5564529032970932e-05,-2.461769462434238e-05,2.524847457627118,32.23455087945945,-69.87,40.22,5.223007721561725,0.00943001789164818,5.20431334949318,5.234966320755337,0.02294068145767333,0.013087385086517644,0.006598982829357426,0.0478274638559349,3.9747127135666824e-07,1.1372412018938446e-06,2.3996109377311114e-08,5.197938236611854e-06,2.3599264451744486,0.006267403520504935,2.3469565038006692,2.366229799482774,0.4355683811840881,1.748608968166037,-2.58941650390625,2.96478271484375,34.05105263157894,0.012093816097974736,34.03,34.07,0.16271186440677965,0.0007719298245612249,0,1,0
0,0.036411048674318935,0.0018885742471545818,0.03577878327343708,0.0488518002387314,-0.036411031436714425,0.0018885733530716767,-0.04885177711146513,-0.03577876633515756,-2.505272664992842e-05,1.2994389366607024e-06,-3.3612621506313634e-05,-2.461769462434238e-05,-2.505272664992842e-05,1.2994389366607024e-06,-3.3612621506313634e-05,-2.461769462434238e-05,-2.160474576271185,28.45852302309685,-63.34,34.26,5.211106932423095,0.0038933991176061597,5.201934489488684,5.216783269267225,0.03287510252852202,0.021703695830505063,0.004541303974747861,0.07155025567676929,0.05702275494001779,0.061718808425647566,3.4882419268356113e-07,0.1981214417878582,2.3351197495364504,0.024277962371358014,2.285454560591527,2.364064020540989,0.04674264669344361,1.4633185463211724,-2.17132568359375,2.68707275390625,34.05666666666667,0.016329931618554498,34.03,34.07,0.13559322033898305,0.00016511867905041742,0,1,0
0,0.03882119681709671,0.004177891947411729,0.018577445161207715,0.0488518002387314,-0.03882117843848733,0.004177889969527212,-0.04885177711146513,-0.018577436366331808,-2.671103600396328e-05,2.8746105575713945e-06,-3.3612621506313634e-05,-1.2782264516485466e-05,-2.671103600396328e-05,2.8746105575713945e-06,-3.3612621506313634e-05,-1.2782264516485466e-05,-3.5046258503401435,69.65976063747921,-168.95,165.52,5.207884771445175,0.032490587506522096,5.162979131580836,5.281928425825075,0.2048117148355748,0.07635313964851227,0.07717096912826533,0.29278869708912064,0.2622997851041308,0.4408087121574676,1.3652091013227619e-07,1.860161959941661,2.1592843654306138,0.07924954311350434,2.0186984522928464,2.2762498912963194,-0.26560702065164726,1.8215795894060052,-3.0364990234375,3.31573486328125,34.07000000000001,0.012977713690463034,34.05,34.09,0.10884353741496598,0.0016842105263160526,0,1,0
0,0.04076834148503888,0.00031945127892861626,0.04059515794486131,0.04197126499383966,-0.04076832218461836,0.00031945112769499314,-0.04197124512393483,-0.04059513872642877,-2.8050774486920693e-05,2.1979937025580235e-07,-2.8878449463170872e-05,-2.7931615054542318e-05,-2.8050774486920693e-05,2.1979937025580235e-07,-2.8878449463170872e-05,-2.7931615054542318e-05,5.2238983050847425,40.4831186251353,-96.2,66.89,5.15674293720674,0.00819323889885616,5.142379643912773,5.168540586093319,0.46090848814622704,0.08958555249077953,0.3041170115526618,0.6007141607664794,0.5120139874948235,0.2538054726228646,9.5967239825967e-05,1.004473990259381,1.843305948883318,0.09645181044583245,1.6865302967650297,2.000806887583952,0.3216522434576675,1.4176090139622353,-2.02789306640625,3.19671630859375,34.07444444444445,0.00831479419283228,34.07,34.09,0.16271186440677965,0.0,0,1,0
0,0.02713162411431637,0.01042508399872374,0.0,0.05229206786117727,-0.02603444535822276,0.012923399647877186,-0.05229204310523028,0.01444911717381363,-1.7913083406486158e-05,8.89198646648568e-06,-3.5979707527885024e-05,9.941761290599808e-06,-1.7913083406486158e-05,8.89198646648568e-06,-3.5979707527885024e-05,9.941761290599808e-06,-4.273627118644069,79.37408282601525,-248.08,193.79,4.971428279886593,0.15536456390490036,4.716893857395086,5.135353910730716,0.558136330453872,0.10609490524618571,0.36281091580432245,0.6834752054265484,0.3839480197421558,0.6336637534005525,1.3516384456124797e-08,2.319314548647479,1.530931326851164,0.07831469461223392,1.412327630983215,1.6689267134932426,-2.6432269264391577,6.719669627832802,-17.63763427734375,4.07562255859375,34.06578947368422,0.008153649149911627,34.05,34.07,0.16271186440677965,0.0009122807017545285,0,1,0
0,0.0369489423286907,0.0008696415523441701,0.032338515650991204,0.039219050895882956,-0.03694892483643831,0.0008696411406411911,-0.03921903232892271,-0.03233850034139241,-2.5422825924196654e-05,5.983593685854055e-07,-2.6984780645913764e-05,-2.2250608602771e-05,-2.5422825924196654e-05,5.983593685854055e-07,-2.6984780645913764e-05,-2.2250608602771e-05,4.48254237288135,32.686163951668036,-98.42,82.21,4.852750214033051,0.013351913678406848,4.831642369643308,4.877545182337617,0.6174361569498563,0.04574734354047106,0.5298788862917978,0.6672343733012325,0.5306848997331627,0.6293652741498319,6.300658075275578e-07,2.016236483913575,1.3317581775101213,0.03777882778704503,1.278733587713049,1.401709548246281,2.53673746391294,4.82204437924248,-4.44488525390625,10.19439697265625,34.07000000000001,7.105427357601002e-15,34.07,34.07,0.18983050847457628,0.0,0,1,0
0,0.03701447123578492,0.0014666010090504432,0.031650462126502035,0.041283211469350475,-0.03701445371250999,0.001466600314736782,-0.041283191925181796,-0.03165044714263938,-2.5467913276988433e-05,1.0090990378468439e-06,-2.8405032258856593e-05,-2.177719139845672e-05,-2.5467913276988433e-05,1.0090990378468439e-06,-2.8405032258856593e-05,-2.177719139845672e-05,-5.033979591836737,33.826076315835884,-106.3,58.87,4.831937989927226,0.017047010439271634,4.802275874561994,4.857224492927357,0.6634622047710477,0.020034026795007938,0.6266342738404895,0.6964188745875787,0.4779742905986818,0.337893525310697,0.0006145341554386619,1.0659015255804398,1.261152243968356,0.005443214283873361,1.2558254804115203,1.2748364327019288,1.3115989363223093,3.157984196461122,-4.02679443359375,5.81817626953125,34.07222222222222,0.0062853936105480715,34.07,34.09,0.16326530612244897,0.0006604747162023736,0,1,0
0,0.031143720003736337,0.00817697742098911,0.015137177538761842,0.05917260310606901,-0.031143705259773974,0.008176973549870068,-0.059172575092760575,-0.01513717037256666,-2.142852602500906e-05,5.626192807107021e-06,-4.071387957102778e-05,-1.0415178494914085e-05,-2.142852602500906e-05,5.626192807107021e-06,-4.071387957102778e-05,-1.0415178494914085e-05,-1.5236949152542407,60.879673379169674,-125.21,276.26,4.8108207491339305,0.07420799912638223,4.70083528066554,4.956112578628051,0.595373729527993,0.08818800337352743,0.4212774490734532,0.7305690111975641,0.37365002259274027,0.6444472714277993,1.5810680764616336e-08,2.103943279419637,1.3060127936914199,0.029223246352555427,1.2658939740675328,1.3607916146477599,-1.133282190516924,2.8498094092797666,-4.205322265625,4.595947265625,34.073157894736845,0.007292845505554305,34.07,34.09,0.18983050847457628,-0.0002807017543860088,0,1,0
0,0.029286740834889545,0.009108306420743622,0.0,0.05917260310606901,-0.02924928189801147,0.009227841154502392,-0.059172575092760575,0.00275221279501212,-2.0125061971155896e-05,6.349245623940217e-06,-4.071387957102778e-05,1.8936688172571063e-06,-2.0125061971155896e-05,6.349245623940217e-06,-4.071387957102778e-05,1.8936688172571063e-06,3.1946101694915243,72.50898343245032,-214.87,218.29,4.756559917826259,0.09084580924408373,4.6591825683364,4.898654984353429,0.3882501672229501,0.06672388183549721,0.2919243718113197,0.4876254144875788,0.2711997150523045,0.3741212180925471,6.482016168263272e-07,1.444114939942934,1.4482780401046638,0.05169466377864911,1.368675561378363,1.5373768579604792,0.8158220698883029,3.5451663722832185,-5.38482666015625,5.55267333984375,34.07777777777779,0.009749960430437216,34.07,34.09,0.05423728813559322,-0.0002683178534572143,0,1,0
0,0.03283595975315575,0.0003079245572415468,0.032338515650991204,0.033026569175480386,-0.03283594420805844,0.00030792441146486733,-0.03302655354014544,-0.03233850034139241,-2.2592876446430635e-05,2.118683762825451e-07,-2.2724025807085277e-05,-2.2250608602771e-05,-2.2592876446430635e-05,2.118683762825451e-07,-2.2724025807085277e-05,-2.2250608602771e-05,0.3727796610169503,23.599645395258786,-50.58,34.27,4.851215127853466,0.007728006116995002,4.840492945618938,4.866569719267896,0.29419519559051965,0.06965471645491257,0.18196255447438578,0.41162324863135114,0.13612523076249033,0.2247508981757381,1.3287096063407944e-06,0.8704400324966572,1.6529135532248818,0.06255505381440968,1.5488872651654617,1.752971362099402,-0.509929420338671,2.674827403757179,-4.73175048828125,3.814697265625,34.08263157894739,0.009647527778855908,34.07,34.09,0.16271186440677965,-0.001052631578947533,0,1,0
0,0.03254446364471584,0.00031510104224599786,0.032338515650991204,0.033026569175480386,-0.03254444823761785,0.0003151008930718482,-0.03302655354014544,-0.03233850034139241,-2.2392311711545378e-05,2.1680617740802082e-07,-2.2724025807085277e-05,-2.2250608602771e-05,-2.2392311711545378e-05,2.1680617740802082e-07,-2.2724025807085277e-05,-2.2250608602771e-05,1.227857142857144,28.983099858037143,-62.4,38.59,4.828928828707987,0.0064457660894524016,4.817350096153115,4.83873930984157,0.09022590051104226,0.043701053717361646,0.03092309360673499,0.1688616488457363,0.01370368042709668,0.0433388012030156,4.375205076012634e-08,0.1870119800020582,1.8306051050313943,0.03631604349926292,1.7630033162747165,1.8797859498019696,0.20351741213360733,1.7891681928967047,-2.43072509765625,3.179931640625,34.0788888888889,0.009938079900000618,34.07,34.09,0.13605442176870747,0.0016511867905059342,0,1,0
0,0.03239468328564333,0.0001883919738264641,0.032338515650991204,0.033026569175480386,-0.032394667949453955,0.00018839188463852651,-0.03302655354014544,-0.03233850034139241,-2.228925490516406e-05,1.2962363884464917e-07,-2.2724025807085277e-05,-2.2250608602771e-05,-2.228925490516406e-05,1.2962363884464917e-07,-2.2724025807085277e-05,-2.2250608602771e-05,0.5658305084745763,30.702645520172577,-69.69,41.03,4.808475324314246,0.007221992749734461,4.793384151949469,4.819631156409575,0.011886118933411996,0.0069344633736153904,0.004502741581423758,0.027342697718021544,0.004934741070713096,0.01837903541162451,4.239539946881976e-08,0.08028573369353718,1.8869104064011581,0.0040958558309038655,1.8775068936901802,1.8913679961739,-0.30922175119502404,1.8167065720248181,-3.02581787109375,2.874755859375,34.07222222222222,0.01474055462380408,34.05,34.09,0.13559322033898305,0.0,0,1,0
0,0.03229667455828574,0.00016443306925816397,0.031650462126502035,0.032338515650991204,-0.03229665926849534,0.00016443299141277658,-0.03233850034139241,-0.03165044714263938,-2.2221819718724908e-05,1.1313864572209109e-07,-2.2250608602771e-05,-2.177719139845672e-05,-2.2221819718724908e-05,1.1313864572209109e-07,-2.2250608602771e-05,-2.177719139845672e-05,0.9295593220338986,35.01158743019336,-74.56,42.66,4.78484637199454,0.007149586581802394,4.7755475273127095,4.7970983196824415,0.022003654395668436,0.009278797206905961,0.0072011276352425945,0.03834412818938,0.02786552493170656,0.045876562566417284,5.656987991375928e-07,0.15268244957242078,1.8476237163270082,0.016987242713512235,1.8204968033075413,1.8749638242427302,0.10374556699994185,2.4406623892878634,-3.289794921875,4.541015625,34.09000000000002,1.4210854715202004e-14,34.09,34.09,0.13559322033898305,0.0,0,1,0
0,0.03369590015508553,0.007581957445540145,0.017201338112229368,0.08807085113461435,-0.0336958842028779,0.007581953856113621,-0.08807080944038784,-0.01720132996882575,-2.3184560910601915e-05,5.216787603496836e-06,-6.05974021522274e-05,-1.1835430107856916e-05,-2.3184560910601915e-05,5.216787603496836e-06,-6.05974021522274e-05,-1.1835430107856916e-05,-0.6247278911564617,53.221321181715496,-159.49,103.83,4.750535166644197,0.017184671718605014,4.717229965924738,4.7774886656211475,0.026336565876771682,0.005119735232545533,0.020445382915046405,0.038028778900571464,0.013864855330106738,0.0345256067716205,2.987227776252155e-08,0.13433092855274537,1.8040139478862764,0.007095309433566847,1.7948391677495557,1.8180331594096766,-0.5050455666061666,1.8736373064830063,-3.00140380859375,3.03497314453125,34.09000000000002,1.4210854715202004e-14,34.09,34.09,0.16326530612244897,0.0,0,1,0
0,0.033719303336190616,5.655634264419356e-05,0.03371462269996956,0.034402676224458736,-0.033719287372903514,5.655631586946685e-05,-0.0344026599376515,-0.03371460673889847,-2.3200663536599e-05,3.8913754043673794e-08,-2.367086021571383e-05,-2.3197443011399553e-05,-2.3200663536599e-05,3.8913754043673794e-08,-2.367086021571383e-05,-2.3197443011399553e-05,0.891999999999999,26.557818046477976,-71.45,42.89,4.7311723500385385,0.005995957423057247,4.721735239486104,4.74274034612146,0.014864649438655888,0.004318739694984434,0.007534193175151999,0.022555339501810816,0.0034471312121187314,0.012553750241533176,7.832538825858215e-08,0.055935752687891915,1.7918686061727047,0.0011161573067399707,1.7903352047913685,1.7942990480787553,0.27274422846716034,1.9129889087264778,-2.18658447265625,3.82232666015625,34.09210526315791,0.006137844099835937,34.09,34.11,0.13559322033898305,0.0005964912280700568,0,1,0
0,0.03373786775147261,0.00012431213615010628,0.03371462269996956,0.034402676224458736,-0.0337378517793968,0.00012431207729864395,-0.0344026599376515,-0.03371460673889847,-2.3213436835869655e-05,8.55333224289663e-08,-2.367086021571383e-05,-2.3197443011399553e-05,-2.3213436835869655e-05,8.55333224289663e-08,-2.367086021571383e-05,-2.3197443011399553e-05,-1.4796271186440677,20.500185965174122,-47.8,24.91,4.7154747361574545,0.004633160225533073,4.709903241896792,4.725611728301648,0.0028972284436848735,0.0017726856448458152,0.000829216793079163,0.006714125170553563,3.1716713685573135e-07,2.026188879635393e-07,7.198628590443512e-08,6.857533733917176e-07,1.7862919276725198,0.0029591954123938625,1.7805528813800382,1.7901292766885988,-0.2521497138790044,3.253215044013868,-5.41229248046875,4.73175048828125,34.09666666666668,0.009428090415818756,34.09,34.11,0.13559322033898305,-0.0008255933952526737,0,1,0
0,0.03372398397241163,7.970836264601065e-05,0.03371462269996956,0.034402676224458736,-0.03372396800690864,7.970832491072704e-05,-0.0344026599376515,-0.03371460673889847,-2.3203884061798412e-05,5.484356792207185e-08,-2.367086021571383e-05,-2.3197443011399553e-05,-2.3203884061798412e-05,5.484356792207185e-08,-2.367086021571383e-05,-2.3197443011399553e-05,1.8653898305084742,21.74503965491429,-47.4,30.13,4.698573864846381,0.006886028777735286,4.686902284806271,4.710221104650459,0.0009151228237618527,0.0006114612710972115,0.00034570390865759404,0.0031972259533654583,0.004145024448962778,0.013051686277506887,1.6461062665382165e-07,0.057828588387320745,1.7683227740738763,0.007613183459300362,1.7546478891030666,1.7796039405293484,0.20839937271610384,2.219904798412357,-2.94342041015625,4.071044921875,34.0984210526316,0.009874559494363153,34.09,34.11,0.13559322033898305,-0.0015438596491224997,0,1,0
0,0.0337146226999696,4.163336342344337e-17,0.03371462269996956,0.03371462269996956,-0.03371460673889839,8.326672684688674e-17,-0.03371460673889847,-0.03371460673889847,-2.319744301139958e-05,2.710505431213761e-20,-2.3197443011399553e-05,-2.3197443011399553e-05,-2.319744301139958e-05,2.710505431213761e-20,-2.3197443011399553e-05,-2.3197443011399553e-05,-2.8752040816326554,21.993076673284943,-48.8,35.59,4.676437432674169,0.010000948085153883,4.655268438398021,4.6919114957464,0.008416348848431239,0.0022199934696663427,0.005094226207696477,0.011760962387586407,0.0052764424898694455,0.017395144707393784,2.1137503061763319e-07,0.0758448676892868,1.7346777313706472,0.011629148634500671,1.7149618429068014,1.7528071707662707,0.014433848946621045,2.7060912233958403,-3.87420654296875,4.52880859375,34.09000000000001,0.013333333333333048,34.07,34.11,0.16326530612244897,0.001981424148606769,0,1,0
0,0.03557887583051112,0.0047570689802179,0.002064160573467524,0.05298012138566645,-0.035578858986871215,0.004757066728141206,-0.05298009630398331,-0.00206415959625909,-2.4480147733899678e-05,3.27311497897917e-06,-3.64531247321993e-05,-1.4202516129428298e-06,-2.4480147733899678e-05,3.27311497897917e-06,-3.64531247321993e-05,-1.4202516129428298e-06,-1.2466101694915246,36.96948914296897,-56.95,137.85,4.653135199229688,0.020918609522795867,4.601715197291106,4.683363360104396,0.023688117386539122,0.0252429507942379,0.0024588078755353117,0.06774908940830855,0.04411195913985225,0.13830143383060206,1.847605889115922e-08,0.5760183309693758,1.692861832843443,0.011582046500718153,1.6748857546913571,1.7125287822069017,0.6162723324663552,2.952499610738631,-4.19769287109375,4.180908203125,34.09888888888891,0.00993807989999709,34.09,34.11,0.16271186440677965,-0.0006604747162021389,0,1,0
0,0.03571793500256377,0.00019535699415458525,0.035090729748947905,0.03577878327343708,-0.035717918093091015,0.00019535690166928878,-0.03577876633515756,-0.03509071313640453,-2.45758277967499e-05,1.3441594109203505e-07,-2.461769462434238e-05,-2.4144277420028106e-05,-2.45758277967499e-05,1.3441594109203505e-07,-2.461769462434238e-05,-2.4144277420028106e-05,2.4101694915254237,37.202380937634885,-80.7,54.13,4.667407238102708,0.003870044200495277,4.662683411163123,4.673747845213081,0.06984440934913708,0.0024559862176590356,0.06426059469327237,0.07351089082932417,0.05306546633128675,0.060601559992317346,1.4575039117836752e-06,0.21188029449227974,1.6627369997236732,0.004970697981185374,1.65736483732924,1.673124069325385,0.4088744927872499,2.152585864061126,-2.55584716796875,3.88031005859375,34.10052631578948,0.020894140253978254,34.07,34.13,0.13559322033898305,0.0010175438596491198,0,1,0
0,0.03537896838758519,0.0006349261464527376,0.033026569175480386,0.03990710442037213,-0.03537895163858482,0.0006349258458679893,-0.03990708552767574,-0.03302655354014544,-2.4342600843457072e-05,4.3686275922044314e-07,-2.745819785022804e-05,-2.2724025807085277e-05,-2.4342600843457072e-05,4.3686275922044314e-07,-2.745819785022804e-05,-2.2724025807085277e-05,0.6290508474576262,35.05630411327129,-78.27,49.97,4.647630922794881,0.006801454844787456,4.6361228018085585,4.6598638389849745,0.049538218936085836,0.009288238079634994,0.035641295331322494,0.06650344451880993,0.025937828258647058,0.04219447919677476,3.9513913785427235e-07,0.1492304085173286,1.659744514300066,0.0019237401450972133,1.6573537749460185,1.6632508355901172,0.4468216572050496,1.6345876192525592,-2.49176025390625,3.30352783203125,34.123333333333335,0.009428090415822108,34.11,34.13,0.16271186440677965,-0.0004953560371517803,0,1,0
0,0.034969033207201454,0.00026253320969681743,0.034402676224458736,0.035090729748947905,-0.03496901665227128,0.0002625330854091695,-0.03509071313640453,-0.0344026599376515,-2.406054376484331e-05,1.8063672919428167e-07,-2.4144277420028106e-05,-2.367086021571383e-05,-2.406054376484331e-05,1.8063672919428167e-07,-2.4144277420028106e-05,-2.367086021571383e-05,-0.8834013605442174,29.14405648784673,-61.4,43.24,4.628684059575898,0.007393612106742795,4.617868308442717,4.640739128816124,0.021047973714771875,0.009051686527245417,0.008098760235393826,0.035036333902221606,0.003828776799706697,0.009448071532489433,3.0344800006076866e-08,0.035079346479417906,1.6651209746410571,0.0008225964234740045,1.6634857465593265,1.6660629816662185,0.01113063605256783,2.3723541922561435,-3.23638916015625,3.741455078125,34.11000000000001,0.012977713690460727,34.09,34.13,0.16326530612244897,-0.0005614035087717931,0,1,0
0,0.03489414302766523,0.0003108308984988878,0.034402676224458736,0.035090729748947905,-0.03489412650818932,0.00031083075134629996,-0.03509071313640453,-0.0344026599376515,-2.400901536165263e-05,2.138680927346289e-07,-2.4144277420028106e-05,-2.367086021571383e-05,-2.400901536165263e-05,2.138680927346289e-07,-2.4144277420028106e-05,-2.367086021571383e-05,0.20776271186440753,30.401343141793102,-63.88,41.15,4.6020333728134615,0.006838084219221422,4.591930030541071,4.612980087518201,0.003874789726916213,0.0016335131499691873,0.00165904784660988,0.007212835542781352,0.0028629949952479017,0.008521902369823102,2.9233360010483267e-08,0.03373533662186769,1.6544152355388935,0.005855716792896511,1.643885788923557,1.6628460171543413,-0.8925274296499283,2.5182289468364805,-4.80804443359375,2.9388427734375,34.11888888888889,0.009938079900000618,34.11,34.13,0.16271186440677965,0.0,0,1,0
0,0.03455144455407797,0.00028324646092970165,0.034402676224458736,0.035090729748947905,-0.03455142819684133,0.00028324632683605113,-0.03509071313640453,-0.0344026599376515,-2.3773220692322308e-05,1.9488854121459137e-07,-2.4144277420028106e-05,-2.367086021571383e-05,-2.3773220692322308e-05,1.9488854121459137e-07,-2.4144277420028106e-05,-2.367086021571383e-05,-0.7425423728813557,31.728421723460553,-68.38,48.22,4.581733599184032,0.008281025954466887,4.568564253801127,4.595736472241769,0.004479409817313628,0.0006784260644886089,0.003202015814165353,0.005502649006193886,0.004100023608840447,0.01211389512840227,1.2785670927550896e-07,0.0450676451058376,1.628083384171439,0.008897905695633281,1.6133381289938247,1.642412766062734,0.500449944962343,1.8736136807408232,-2.12249755859375,3.7200927734375,34.11000000000001,0.012977713690460729,34.09,34.13,0.16271186440677965,0.0005614035087717931,0,1,0
0,0.03448224704021595,0.00022003969075596423,0.034402676224458736,0.035090729748947905,-0.03448223071573857,0.00022003958658546407,-0.03509071313640453,-0.0344026599376515,-2.372560914410389e-05,1.5139894140242296e-07,-2.4144277420028106e-05,-2.367086021571383e-05,-2.372560914410389e-05,1.5139894140242296e-07,-2.4144277420028106e-05,-2.367086021571383e-05,0.8559661016949136,31.991268157169635,-71.31,45.92,4.55813563970255,0.007518188532114126,4.542817685118033,4.569287513712946,0.006375504723412202,0.0006736602087058119,0.00492984514287161,0.00730468883593544,0.0033506301078659695,0.00772742315081413,1.3614661134586648e-07,0.02446371907608777,1.5982023347357026,0.00812037817246915,1.5851234380644827,1.611702295228844,-0.2234941530479173,1.925149946219928,-2.96478271484375,3.2501220703125,34.096666666666685,0.009428090415818758,34.09,34.11,0.16271186440677965,0.00016511867905053473,0,1,0
0,0.03458522103707826,0.0003435727274909419,0.033026569175480386,0.035090729748947905,-0.03458520466385124,0.0003435725648378192,-0.03509071313640453,-0.03302655354014544,-2.3796460698491085e-05,2.3639620224044424e-07,-2.4144277420028106e-05,-2.2724025807085277e-05,-2.3796460698491085e-05,2.3639620224044424e-07,-2.4144277420028106e-05,-2.2724025807085277e-05,-0.868979591836736,38.83608005353724,-83.2,45.77,4.532862051871291,0.0073287448244735865,4.518468908474141,4.541860610851165,0.003541592782953374,0.001230960203645475,0.0014677879115819051,0.005129557757265153,0.0015044740052895982,0.0062005296629998995,1.806637491413854e-07,0.02706991263182018,1.5719574684284625,0.006924067957296102,1.561002512109247,1.583654791405265,-0.15328882941537106,1.831599216622443,-2.92816162109375,2.825927734375,34.10555555555556,0.008314794192829322,34.09,34.11,0.13605442176870747,0.0008255933952526737,0,1,0
0,0.034853630223617135,0.00048463563225902126,0.032338515650991204,0.036466836797926255,-0.0348536137233207,0.00048463540282433956,-0.03646681953391059,-0.03233850034139241,-2.3981140410433324e-05,3.3345493914225016e-07,-2.5091111828656657e-05,-2.2250608602771e-05,-2.3981140410433324e-05,3.3345493914225016e-07,-2.5091111828656657e-05,-2.2250608602771e-05,0.934474576271187,37.75027871009738,-89.66,50.76,4.511171820671156,0.007876089985422286,4.497020145914644,4.51967012699018,0.0006550512539806366,0.0003600882655823733,0.00019377413143635596,0.0013240272267078495,0.00011241289420448464,0.0004755217503313465,3.038192759353964e-08,0.002129878144251751,1.5502717572673788,0.005596281105971449,1.5413827944260845,1.5598286286817185,-0.13542743237971075,1.8481708553148184,-2.64129638671875,3.16925048828125,34.10263157894738,0.009647527778852482,34.09,34.11,0.16271186440677965,-0.0014736842105260225,0,1,0
0,0.03509072974894785,8.025619289152575e-05,0.034402676224458736,0.03577878327343708,-0.03509071313640446,8.025615489689047e-05,-0.03577876633515756,-0.0344026599376515,-2.4144277420028144e-05,5.5220504096424056e-08,-2.461769462434238e-05,-2.367086021571383e-05,-2.4144277420028144e-05,5.5220504096424056e-08,-2.461769462434238e-05,-2.367086021571383e-05,1.4586440677966097,38.1318032244018,-81.52,47.75,4.4977409709080325,0.004102002356277704,4.49298898042281,4.506057967502329,0.001410691875569655,0.0014235581297597822,7.156348915350564e-05,0.0034365839909161477,0.002306813834557871,0.005402134944227146,7.927966751229004e-08,0.020592386983896933,1.5327119166937144,0.0047301191457846375,1.5249056165553847,1.5404577396826318,0.019906967499224326,2.0136559375823087,-2.813720703125,3.289794921875,34.10333333333334,0.01632993161855385,34.09,34.13,0.16271186440677965,0.0016511867905056993,0,1,0
0,0.03510002776954905,7.944232284073574e-05,0.035090729748947905,0.03577878327343708,-0.03510001115260383,7.944228523139956e-05,-0.03577876633515756,-0.03509071313640453,-2.4150674949816182e-05,5.466051846971523e-08,-2.461769462434238e-05,-2.4144277420028106e-05,-2.4150674949816182e-05,5.466051846971523e-08,-2.461769462434238e-05,-2.4144277420028106e-05,-3.314915254237288,40.28491791518876,-95.04,52.74,4.484290666350723,0.0045533899322006115,4.476822287303822,4.492245937099532,0.003907231934727829,0.0017081776775174748,0.001932220807229655,0.007385357251454588,0.004628010037461171,0.01578731185131905,1.7743959625921013e-07,0.06923610666723422,1.5148130185147526,0.005723279174252784,1.5051660184506255,1.523956548826136,0.10990114425015508,1.808171549905807,-2.64892578125,3.30352783203125,34.09421052631581,0.008153649149908732,34.09,34.11,0.16271186440677965,-0.0006315789473682954,0,1,0
0,0.03512817483871596,0.00015608360337340013,0.035090729748947905,0.03577878327343708,-0.03512815820844545,0.0001560835294807894,-0.03577876633515756,-0.03509071313640453,-2.4170041621623473e-05,1.0739377173191988e-07,-2.461769462434238e-05,-2.4144277420028106e-05,-2.4170041621623473e-05,1.0739377173191988e-07,-2.461769462434238e-05,-2.4144277420028106e-05,2.965578231292519,40.596359754858824,-94.1,54.82,4.470256445573818,0.004202649247134017,4.464432784016043,4.4814748318264375,0.007835811278765772,0.0026893275059263525,0.004972677656697709,0.014124774880178657,0.009290680056473207,0.018526853290390298,2.0257607907803177e-07,0.06568189820794987,1.4940203683810585,0.006205011435943419,1.483716464756708,1.504033953175015,0.22977066986614067,2.078563145695906,-3.00140380859375,3.31268310546875,34.09000000000001,0.013333333333333048,34.07,34.11,0.16326530612244897,-0.0006604747162021976,0,1,0
0,0.03520306501825219,0.0002543097820368308,0.035090729748947905,0.03577878327343708,-0.035203048352527425,0.00025430966164228944,-0.03577876633515756,-0.03509071313640453,-2.422157002481413e-05,1.749785761667778e-07,-2.461769462434238e-05,-2.4144277420028106e-05,-2.422157002481413e-05,1.749785761667778e-07,-2.461769462434238e-05,-2.4144277420028106e-05,0.10684745762712039,39.643761394689875,-88.47,50.72,4.45118979118789,0.008427496313874898,4.4348782860109175,4.464646506130428,0.0071793982441902505,0.0037604521033045685,0.002292083168720128,0.013908364808579328,1.6599253581307045e-07,2.9207719282335677e-07,2.8322481901432717e-08,1.2853474112284324e-06,1.4716650209935684,0.006636689772013728,1.4607413393713486,1.4824691258278526,0.412145905194355,2.2780140976429433,-3.40118408203125,3.52935791015625,34.09000000000002,1.4210854715202004e-14,34.09,34.09,0.16271186440677965,0.0,0,1,0
0,0.03517441193435868,0.00022488911590771572,0.035090729748947905,0.03577878327343708,-0.03517439528219876,0.0002248890094414139,-0.03577876633515756,-0.03509071313640453,-2.420185518812041e-05,1.5473560231056495e-07,-2.461769462434238e-05,-2.4144277420028106e-05,-2.420185518812041e-05,1.5473560231056495e-07,-2.461769462434238e-05,-2.4144277420028106e-05,-1.297050847457626,39.505479720067555,-88.91,57.1,4.4240724600172046,0.005012464539161094,4.417373843560072,4.433913333943922,0.002239364737387343,0.0004923969123344046,0.0015756834519795623,0.00309644048326204,0.002029631341709291,0.006028052185212981,6.761200845722959e-08,0.022858581708201566,1.44788670534742,0.006999922432415919,1.4364680589695533,1.4594475991474802,0.04827390533522992,1.7513113178890838,-3.00140380859375,2.71148681640625,34.08578947368423,0.008153649149911627,34.07,34.09,0.16271186440677965,0.001052631578947533,0,1,0
0,0.03515157801982103,0.00019535699415458517,0.035090729748947905,0.03577878327343708,-0.035151561378471065,0.0001953569016692887,-0.03577876633515756,-0.03509071313640453,-2.4186144247620554e-05,1.3441594109203505e-07,-2.461769462434238e-05,-2.4144277420028106e-05,-2.4186144247620554e-05,1.3441594109203505e-07,-2.461769462434238e-05,-2.4144277420028106e-05,-1.4956122448979594,35.518096318943606,-78.8,51.34,4.406538239609173,0.005346622515059834,4.398812574180158,4.418877273130211,0.002758022644794674,0.0008846409576634258,0.0014121617415934309,0.004028976744724797,0.002028364224509443,0.00605454164539491,8.691037978181271e-08,0.024068853076807166,1.4250394994736193,0.006122652102274029,1.415147500641727,1.4352273128833648,-0.09185895138875426,1.7726454622922825,-2.6092529296875,3.11737060546875,34.08333333333334,0.014907119849999692,34.07,34.13,0.16326530612244897,0.001362229102167271,0,1,0
0,0.03524987138046233,0.00029012394174802823,0.035090729748947905,0.03577878327343708,-0.035249854692578665,0.00029012380439846026,-0.03577876633515756,-0.03509071313640453,-2.4253775276808304e-05,1.9962061165075874e-07,-2.461769462434238e-05,-2.4144277420028106e-05,-2.4253775276808304e-05,1.9962061165075874e-07,-2.461769462434238e-05,-2.4144277420028106e-05,2.5509152542372875,41.7680396367188,-88.82,53.81,4.387767969645541,0.005444066180776253,4.378645635127248,4.397121985968337,0.0022987744970352666,0.0008299993831338251,0.000997225426794878,0.0033432642136645386,0.0018431543931155152,0.006871837291190005,1.5027490939123478e-07,0.03071418552836369,1.403457935844713,0.006549577899118991,1.3924061771089749,1.4140085957315616,-0.3338631566050035,1.5901455455709166,-2.53753662109375,2.39105224609375,34.09631578947371,0.01458569101110602,34.09,34.13,0.16271186440677965,-0.0016842105263157536,0,1,0
0,0.03422136482273523,0.004965079882056764,0.015825231063251018,0.061236763679536545,-0.03422134862176387,0.004965077531504196,-0.06123673468901967,-0.01582522357131969,-2.354610838484725e-05,3.41623747760826e-06,-4.2134131183970615e-05,-1.088859569922836e-05,-2.354610838484725e-05,3.41623747760826e-06,-4.2134131183970615e-05,-1.088859569922836e-05,1.4467118644067805,44.42463532887377,-99.57,111.48,4.368491003907909,0.007683928294773252,4.35205152911939,4.377020518802516,0.004435228005936929,0.0014671144865547451,0.002402946430174282,0.006579627353855229,0.003195147687205156,0.011282783452651482,4.42286688384641e-08,0.049024173018325776,1.3785263714413456,0.008038097236583549,1.3647301390345048,1.3910805883139292,-0.15187489849567562,1.935535718438863,-3.16619873046875,3.0731201171875,34.07888888888889,0.00993807990000062,34.07,34.09,0.16271186440677965,-0.0016511867905059342,0,1,0
0,0.02525203241237472,0.0005698470358218743,0.022705766308142764,0.026146033930588636,-0.025252020457636772,0.0005698467660466732,-0.02614602155261514,-0.022705755558849988,-1.737473345085391e-05,3.920848901774849e-07,-1.7989853763942512e-05,-1.5622767742371126e-05,-1.737473345085391e-05,3.920848901774849e-07,-1.7989853763942512e-05,-1.5622767742371126e-05,-0.4373220338983066,55.076716197189775,-157.05,118.2,4.3471512772876375,0.008471532116916305,4.327999544763586,4.358050919480983,0.013077454063991314,0.011548659218048625,0.0009562303774571244,0.0327347118807156,0.02395458716319927,0.05962928534672021,2.7120576583106182e-08,0.24163549120938407,1.3463353615946243,0.010119690841366158,1.3298742367934595,1.3629401673379475,-0.5365731402603036,4.740972078996857,-6.61773681640625,6.70318603515625,34.074210526315795,0.008153649149911629,34.07,34.09,0.13559322033898305,-0.0007719298245615242,0,1,0
0,0.02547202231476242,9.728519695853738e-05,0.025457980406099465,0.026146033930588636,-0.02547201025587754,9.72851509020842e-05,-0.02614602155261514,-0.02545796835386211,-1.7526098135226505e-05,6.693735926935082e-08,-1.7989853763942512e-05,-1.7516436559628233e-05,-1.7526098135226505e-05,6.693735926935082e-08,-1.7989853763942512e-05,-1.7516436559628233e-05,-1.4729931972789105,38.44321993626421,-107.38,78.58,4.332845716025803,0.010587701566417376,4.316882810363337,4.349670646072088,0.026214612140998073,0.005125770097110433,0.020148817640479082,0.033915579690916,0.012633717611987989,0.02291914854622981,3.004759455693673e-07,0.07082076632428308,1.3152854012899236,0.007279012080456526,1.3045077130580753,1.3281377932910394,1.2775014115326457,1.847065141378726,-2.79693603515625,4.28009033203125,34.06555555555556,0.00831479419283228,34.05,34.07,0.13605442176870747,-0.0006604747162023736,0,1,0
0,0.025457980406099374,9.020562075079397e-17,0.025457980406099465,0.025457980406099465,-0.025457968353862173,6.245004513516506e-17,-0.02545796835386211,-0.02545796835386211,-1.7516436559628254e-05,2.0328790734103208e-20,-1.7516436559628233e-05,-1.7516436559628233e-05,-1.7516436559628254e-05,2.0328790734103208e-20,-1.7516436559628233e-05,-1.7516436559628233e-05,-2.7239999999999993,31.595209542490746,-71.18,42.03,4.309787544953446,0.008689929714602421,4.29518673998705,4.320548575867011,0.01749245225803781,0.005793399089744247,0.007465052895654774,0.024270614664157076,0.007911466157263281,0.024626597001293563,5.2686212864694326e-08,0.10205759777586676,1.2967272698463843,0.004140786789470682,1.2896158764865187,1.3035734770820113,-0.1116486021794039,1.222615945336118,-1.824951171875,2.16217041015625,34.07444444444445,0.01571348402637018,34.05,34.09,0.16271186440677965,-0.0009907120743035606,0,1,0
0,0.025462661042320388,5.655634264419341e-05,0.025457980406099465,0.026146033930588636,-0.025462648987867296,5.6556315869467225e-05,-0.02614602155261514,-0.02545796835386211,-1.7519657084827673e-05,3.8913754043673715e-08,-1.7989853763942512e-05,-1.7516436559628233e-05,-1.7519657084827673e-05,3.8913754043673715e-08,-1.7989853763942512e-05,-1.7516436559628233e-05,3.8803050847457636,41.61294824045583,-89.69,52.98,4.2769376595172774,0.009938767848358778,4.26129808786462,4.295499691985676,0.0034207456044230825,0.0015346810235896734,0.0013163958021011415,0.006611253366176894,0.0029972487698818107,0.010251044605867465,4.226658764650004e-08,0.044996987349415984,1.2740687301492866,0.01055625055015778,1.253772341774376,1.2885763460199486,-0.1580354297723131,1.3034203339271966,-1.904296875,2.42919921875,34.070000000000014,0.01297771369046303,34.05,34.09,0.13559322033898305,0.0005614035087720176,0,1,0
0,0.025462629416399978,5.636625431888234e-05,0.025457980406099465,0.026146033930588636,-0.025462617361961856,5.636622763414688e-05,-0.02614602155261514,-0.02545796835386211,-1.751963532452227e-05,3.878296322531633e-08,-1.7989853763942512e-05,-1.7516436559628233e-05,-1.751963532452227e-05,3.878296322531633e-08,-1.7989853763942512e-05,-1.7516436559628233e-05,-2.0030847457627114,44.893648151856056,-94.45,54.03,4.245630527062557,0.01105629576425985,4.229563881321081,4.260648089232572,0.023383211819957214,0.01048645882331574,0.006050603915057492,0.044358731234456814,0.04203521643149216,0.06107016314186786,9.264617258919472e-07,0.18458895721897928,1.215997014053392,0.022689802807873412,1.1769106841334294,1.250576209786615,0.25994954477583,1.7293889924425963,-2.97088623046875,2.85491943359375,34.08333333333335,0.00942809041582211,34.07,34.09,0.16271186440677965,-0.0001651186790505934,0,1,0
0,0.026946422724382142,0.0041431483760478215,0.019953552210186066,0.04953985376322058,-0.02694640996749113,0.004143146414611493,-0.04953983031021816,-0.01995354276383787,-1.85405635730428e-05,2.850705143475586e-06,-3.408603871062791e-05,-1.372909892511402e-05,-1.85405635730428e-05,2.850705143475586e-06,-3.408603871062791e-05,-1.372909892511402e-05,2.0861224489795918,43.969065972745184,-91.24,56.24,4.219909002542792,0.007295413167773997,4.204603988309098,4.230467933872224,0.07833778010275147,0.015821674812914136,0.04916631252941931,0.10046515961352873,0.060281934772011145,0.11429408678688951,1.548379047200399e-08,0.3891664833189261,1.1281030414391884,0.025994146330485402,1.0872331836069953,1.1719249547479926,0.18737272513929262,1.846860624712421,-2.7191162109375,2.838134765625,34.07526315789474,0.008806947647728488,34.07,34.09,0.16326530612244897,0.0012280701754387884,0,1,0
0,0.039434360162049695,0.002336823747143876,0.028210194504056162,0.042659318518328826,-0.03943434149315837,0.0023368226408520994,-0.04265929832268786,-0.02821018114887423,-2.7132924805086962e-05,1.6078582929567839e-06,-2.935186666748515e-05,-1.941010537688534e-05,-2.7132924805086962e-05,1.6078582929567839e-06,-2.935186666748515e-05,-1.941010537688534e-05,-0.7734576271186446,37.661935946406885,-71.15,55.97,4.128239055764042,0.017117085391996897,4.1079722772397735,4.182220920683604,0.04813745211776618,0.0076630823770563305,0.03918357546296593,0.06963573684835314,0.031245221363583202,0.05034718557024131,1.7297403509530795e-08,0.1749847637183184,1.0584959835685899,0.013237525935919736,1.0400369131041312,1.083347239595198,-0.04064007793714125,2.7645464717703696,-3.77349853515625,4.68597412109375,34.081111111111134,0.016629588385664563,34.05,34.09,0.10847457627118644,0.0013209494324047473,0,1,0
0,0.04021393910021196,0.0003420104708146917,0.03990710442037213,0.04059515794486131,-0.04021392006225483,0.00034201030890116486,-0.04059513872642877,-0.03990708552767574,-2.7669316333233058e-05,2.3532128704595948e-07,-2.7931615054542318e-05,-2.745819785022804e-05,-2.7669316333233058e-05,2.3532128704595948e-07,-2.7931615054542318e-05,-2.745819785022804e-05,-0.8536949152542384,41.94964580657093,-97.6,57.2,4.093214444239611,0.009514941560838422,4.07368180552249,4.109134212424547,0.030585606574575347,0.007050122143591223,0.016547398313645784,0.04093414022854358,0.008745501537891743,0.023320006438087574,1.103603384788876e-07,0.0893761324415715,1.030501679130587,0.0040644040042339385,1.0250886243425739,1.0386274122675254,-0.341118654009722,1.8208566741873355,-3.63616943359375,2.9998779296875,34.083684210526336,0.009296590385609713,34.07,34.09,0.13559322033898305,-0.0002456140350877577,0,1,0
0,0.040393890587357706,0.00038665568336446025,0.03990710442037213,0.041283211469350475,-0.040393871464208565,0.0003866555003151371,-0.041283191925181796,-0.03990708552767574,-2.7793132470967372e-05,2.660395538072843e-07,-2.8405032258856593e-05,-2.745819785022804e-05,-2.7793132470967372e-05,2.660395538072843e-07,-2.8405032258856593e-05,-2.745819785022804e-05,-0.25620338983050894,43.987149099762476,-91.46,69.28,4.065164280006589,0.0051395682187717045,4.053432458724604,4.073429497742059,0.007196912795923628,0.003505810378321519,0.0025659556566418546,0.01475856072305627,0.0008741201131788939,0.0036032771217391403,2.934305155105621e-08,0.01573081224358075,1.0205000028049094,0.0030184652068245524,1.0145395584614298,1.0246897291653718,0.06649101368581291,2.3464277923533206,-3.692626953125,3.78570556640625,34.087777777777795,0.006285393610548069,34.07,34.09,0.16271186440677965,0.0006604747162023736,0,1,0
0,0.04083855102835408,0.00032897914195487783,0.04059515794486131,0.041283211469350475,-0.04083853169469514,0.0003289789862106054,-0.041283191925181796,-0.04059513872642877,-2.8099082364911976e-05,2.2635504378473565e-07,-2.8405032258856593e-05,-2.7931615054542318e-05,-2.8099082364911976e-05,2.2635504378473565e-07,-2.8405032258856593e-05,-2.7931615054542318e-05,2.3369047619047616,44.21836754307653,-89.06,59.5,4.042701430017676,0.004694991243664405,4.034686508279716,4.049802401477647,0.006963722960916243,0.005103902035129869,0.0015696556613053326,0.017689254487362922,0.013266155014584759,0.019312643282111727,5.8140124561956164e-08,0.060763882372325745,0.9976047492573472,0.011666415906332129,0.9752233255066475,1.013426327788681,0.018222515399639424,3.286274230055814,-5.596923828125,4.00543212890625,34.08777777777779,0.014740554623801699,34.07,34.11,0.16326530612244897,-0.0019814241486067106,0,1,0
0,0.03995359452337816,0.005161121770574857,0.008256642293870096,0.05022790728770975,-0.03995357560867258,0.005161119327212752,-0.050227883508971186,-0.00825663838503636,-2.7490185499168173e-05,3.5511246622348205e-06,-3.455945591494219e-05,-5.681006451771319e-06,-2.7490185499168173e-05,3.5511246622348205e-06,-3.455945591494219e-05,-5.681006451771319e-06,-4.35664406779661,30.067109468463478,-73.1,39.44,4.020671768713241,0.008541978565902976,4.005867559583798,4.033330625356096,0.05165482933837086,0.022314574793158577,0.019643079882104116,0.0922639069316376,0.09110209735160907,0.10749113035948682,6.998370108635132e-05,0.46357397402870926,0.9247917356050283,0.03212061562246653,0.8668152782073186,0.9715054504085625,1.138822020727115,1.5977349740572468,-1.849365234375,4.12750244140625,34.08789473684212,0.014355980733669263,34.07,34.11,0.16271186440677965,3.508771929832589e-05,0,1,0
0,0.03343378452670866,0.006426389099642651,0.013073016965294318,0.053668174910155624,-0.03343376869859112,0.006426386057281652,-0.05366814950273634,-0.01307301077630757,-2.300421149943454e-05,4.421695483134511e-06,-3.6926541936513574e-05,-8.994926881971256e-06,-2.300421149943454e-05,4.421695483134511e-06,-3.6926541936513574e-05,-8.994926881971256e-06,-7.508135593220334,58.36970985065293,-145.07,114.3,4.024001596400927,0.06400888407742439,3.9169863881603657,4.092381025850378,0.18626270230887199,0.048771825073906254,0.10389407698264755,0.25531939655544794,0.18800205053330007,0.34022913546167244,1.2018717576722793e-08,1.0622204553707428,0.7959673227911659,0.03751665620051587,0.7378662393986724,0.8592546795681774,-0.3896421502918477,2.41949647638532,-3.497314453125,4.1107177734375,34.09444444444446,0.008314794192829326,34.09,34.11,0.08135593220338982,0.0006604747162021389,0,1,0
0,0.037670930465782404,0.002873746524046985,0.026146033930588636,0.04678763966526387,-0.0376709126317284,0.002873745163566916,-0.04678761751520604,-0.02614602155261514,-2.59195919362066e-05,1.9772895521932585e-06,-3.219236989337081e-05,-1.7989853763942512e-05,-2.59195919362066e-05,1.9772895521932585e-06,-3.219236989337081e-05,-1.7989853763942512e-05,10.534440677966119,61.92119803736097,-84.8,223.72,4.058382897321809,0.03863382992997075,3.965526326523834,4.113610764314689,0.31325984900409576,0.0531811878585991,0.17996032492274486,0.3613822148520231,0.2726707780060275,0.4895611263598052,1.7931493090372896e-07,2.130064748242056,0.7072751625301684,0.010402111461765094,0.6972365310813952,0.7323648963680901,-0.06583287165715145,2.168343921896681,-2.82440185546875,4.046630859375,34.092105263157904,0.01703833058551388,34.07,34.11,0.10847457627118644,-0.0009473684210525303,0,1,0
0,0.03918160580611496,0.0002635327052267285,0.03853099737139378,0.03990710442037213,-0.03918158725688176,0.00026353258046589944,-0.03990708552767574,-0.03853097913016968,-2.695901644431837e-05,1.813244349652024e-07,-2.745819785022804e-05,-2.651136344159949e-05,-2.695901644431837e-05,1.813244349652024e-07,-2.745819785022804e-05,-2.651136344159949e-05,-4.24391156462585,31.613635394603506,-77.79,37.08,4.045783020776037,0.009597213661792484,4.031065418275971,4.061483423056882,0.24676845867478547,0.04343260807301063,0.17119732661338685,0.3118874283824501,0.12230276439534954,0.12457560139451367,3.850792491100208e-06,0.4481593164015685,0.7590332359755041,0.03317006137508367,0.7109263707883777,0.8175128578752686,-0.43209161119484724,2.1426260210579904,-3.680419921875,3.31268310546875,34.09222222222224,0.01133115447464993,34.07,34.11,0.16326530612244897,0.0004953560371518389,0,1,0
0,0.039190967078556994,0.0001772472332410411,0.03853099737139378,0.03990710442037213,-0.039190948524892015,0.0001772471493292108,-0.03990708552767574,-0.03853097913016968,-2.6965457494717196e-05,1.2195546806581934e-07,-2.745819785022804e-05,-2.651136344159949e-05,-2.6965457494717196e-05,1.2195546806581934e-07,-2.745819785022804e-05,-2.651136344159949e-05,4.941932203389831,34.03868056947357,-73.17,50.86,4.022344305321083,0.0062097158350666965,4.012921506985274,4.032746944326329,0.09360198500976988,0.0416724694896387,0.033891639307676594,0.16542928760919892,0.009328539496650832,0.02571343344550304,2.991280867448154e-08,0.1086408875052074,0.8837237817648489,0.033274261802205704,0.8251210032118796,0.9320575144710361,0.3598565016701249,2.2938342917109957,-3.546142578125,3.71856689453125,34.0877777777778,0.0062853936105480715,34.07,34.09,0.16271186440677965,-0.0006604747162023736,0,1,0
0,0.03815907654734564,0.004880619493648576,0.012384963440805145,0.05917260310606901,-0.03815905848219511,0.004880617183080982,-0.059172575092760575,-0.01238495757755454,-2.6255462250078223e-05,3.358124264707876e-06,-4.071387957102778e-05,-8.521509677656977e-06,-2.6255462250078223e-05,3.358124264707876e-06,-4.071387957102778e-05,-8.521509677656977e-06,-7.72464406779661,33.88281851170355,-88.45,59.09,4.007508502160581,0.004977390698935645,4.001241742783502,4.019192002731588,0.015465629514639095,0.005731320499586165,0.008651453798529234,0.0299818812707204,0.005808918618326463,0.02233215346104218,3.1293804436671735e-08,0.10005262533521306,0.9482629143085102,0.004800769489329848,0.9356281379288679,0.9525709557866158,-0.3342815427567172,2.965938697111111,-4.80499267578125,4.76837158203125,34.09631578947369,0.018413532299511016,34.07,34.11,0.05423728813559322,0.0024210526315789514,0,1,0
0,0.0387977936359917,0.00033524597443329693,0.03853099737139378,0.039219050895882956,-0.03879777526846163,0.0003352458157221964,-0.03921903232892271,-0.03853097913016968,-2.6694933377966295e-05,2.306669558762259e-07,-2.6984780645913764e-05,-2.651136344159949e-05,-2.6694933377966295e-05,2.306669558762259e-07,-2.6984780645913764e-05,-2.651136344159949e-05,8.077244897959183,30.708382304673055,-63.71,46.72,4.0008647339480445,0.0052178443114277145,3.990420009082957,4.008363002598542,0.020519684346286173,0.003126344083618301,0.01259765131389517,0.02494973286018553,0.022182194620159724,0.0312031345006979,1.2477283227729785e-06,0.09824941916973493,0.9328665042827402,0.008474660135166038,0.9198134810614695,0.94657086181646,0.7208438428400764,2.645513545297862,-3.277587890625,5.16815185546875,34.10333333333334,0.01632993161855385,34.09,34.13,0.16326530612244897,0.0013209494324045125,0,1,0
0,0.03853099737139384,5.551115123125783e-17,0.03853099737139378,0.03853099737139378,-0.038530979130169625,5.551115123125783e-17,-0.03853097913016968,-0.03853097913016968,-2.6511363441599543e-05,5.421010862427522e-20,-2.651136344159949e-05,-2.651136344159949e-05,-2.6511363441599543e-05,5.421010862427522e-20,-2.651136344159949e-05,-2.651136344159949e-05,-2.042305084745761,22.083648835122904,-53.67,27.88,3.983105123953778,0.007284152241997688,3.967082159473456,3.992613423435236,0.015557488749459131,0.007058662347136767,0.005223196951102252,0.025459751610030057,0.0032098005600153853,0.01361299424589655,5.3073315631202433e-08,0.060964842853179546,0.9170860122524173,0.0011093369605739817,0.9157697635090147,0.9192008226540596,0.2199878172010701,2.7341594171643586,-4.22515869140625,4.022216796875,34.104736842105275,0.018171238422770495,34.07,34.13,0.16271186440677965,-0.0025614035087719563,0,1,0
0,0.03851240133019143,0.00011157624721446096,0.037842943846904606,0.03853099737139378,-0.0385123830977709,0.00011157619439238292,-0.03853097913016968,-0.03784292593141665,-2.6498568382023474e-05,7.67703574563689e-08,-2.651136344159949e-05,-2.6037946237285214e-05,-2.6498568382023474e-05,7.67703574563689e-08,-2.651136344159949e-05,-2.6037946237285214e-05,0.567322033898304,27.869575476409356,-60.33,39.22,3.971443524837377,0.004298193985981642,3.963403382841494,3.976863979269095,0.002332976397070287,0.0012881631160238844,0.000805406320761566,0.0050989318446274,0.005026578260248683,0.015348073720541306,4.853904374962914e-08,0.06259901153625791,0.9179544832590035,0.0031678958856001397,0.9099973507106098,0.9205447686481821,-0.5140602237276509,2.3411365976648475,-3.63616943359375,3.58428955078125,34.08777777777779,0.019876159799997708,34.07,34.11,0.16271186440677965,0.0006604747162022562,0,1,0
0,0.03870418091157138,0.0011708702958078538,0.03715489032241543,0.04678763966526387,-0.03870416258835917,0.0011708697414981055,-0.04678761751520604,-0.037154872732663616,-2.6630522873977945e-05,8.056206709609049e-07,-3.219236989337081e-05,-2.5564529032970932e-05,-2.6630522873977945e-05,8.056206709609049e-07,-3.219236989337081e-05,-2.5564529032970932e-05,-0.26474576271186484,29.774193771886956,-62.51,37.97,3.9596440125222188,0.005014566056072316,3.9503363916386887,3.968346970187852,0.03222645689519332,0.019997800465313742,0.007236296030649545,0.07139654723580785,0.058492061097754455,0.09036914110093863,1.246587867376192e-06,0.2797800092224638,0.8730606871204777,0.025023160358411043,0.8272572083965068,0.9078439901294323,0.08672141555521092,1.8466132937156543,-2.96783447265625,3.6834716796875,34.093157894736855,0.014886458551295105,34.07,34.11,0.16271186440677965,0.0025263157894735554,0,1,0
0,0.03855440055249885,0.00400350114087634,0.026146033930588636,0.05022790728770975,-0.038554382300195304,0.004003499245551373,-0.050227883508971186,-0.02614602155261514,-2.6527466067596567e-05,2.7546204621069597e-06,-3.455945591494219e-05,-1.7989853763942512e-05,-2.6527466067596567e-05,2.7546204621069597e-06,-3.455945591494219e-05,-1.7989853763942512e-05,-11.016326530612242,74.57475333841352,-125.95,145.73,3.935996059966051,0.027030770147757635,3.858455702980844,3.968638576898881,0.10766851902762485,0.027763765523845747,0.0675286448607861,0.14714672358615774,0.07729042031247262,0.2065600166846022,1.6654894796630515e-08,0.7885083530647601,0.7691541865762537,0.03123510521007771,0.7199017948412103,0.821182467311917,-0.2813736794900066,2.9461713163226433,-5.27801513671875,4.41131591796875,34.11000000000001,7.105427357601002e-15,34.11,34.11,0.08163265306122448,0.0,0,1,0
0,0.041194880273639,0.0007848295004609692,0.037842943846904606,0.044035425567307176,-0.041194860771287777,0.0007848291289094467,-0.04403540472019392,-0.03784292593141665,-2.8344255725870328e-05,5.400041926206987e-07,-3.02987010761137e-05,-2.6037946237285214e-05,-2.8344255725870328e-05,5.400041926206987e-07,-3.02987010761137e-05,-2.6037946237285214e-05,15.688677966101695,44.696194923338915,-102.45,94.59,3.8421129107196643,0.012206618936037725,3.811822647253192,3.857429689113071,0.08376436210967474,0.005824361313708349,0.07627920619362272,0.09447022287085871,0.07461490849897003,0.1228690695576694,6.757198467433057e-08,0.37609820885739076,0.6863411155622509,0.014024415338520604,0.6702126668594143,0.7149292449774549,0.7725170300016483,2.6909589372491505,-2.94952392578125,5.3497314453125,34.11000000000001,7.105427357601002e-15,34.11,34.11,0.16271186440677965,0.0,0,1,0
0,0.04147043691819102,0.00032657292332672233,0.04059515794486131,0.042659318518328826,-0.041470417285386627,0.0003265727687215915,-0.04265929832268786,-0.04059513872642877,-2.853385326683331e-05,2.2469943814452398e-07,-2.935186666748515e-05,-2.7931615054542318e-05,-2.853385326683331e-05,2.2469943814452398e-07,-2.935186666748515e-05,-2.7931615054542318e-05,-5.303491525423729,28.915289375582205,-82.95,39.69,3.839873483943297,0.0051218355280603445,3.8298205784137243,3.8508885260132373,0.08799161671071963,0.011030008811501636,0.06934918337114715,0.10686012558811668,0.05109024705307818,0.07473274426042789,4.5122468739222654e-07,0.3130654187986619,0.6770005807113642,0.006590790967257049,0.6698028782991857,0.6901292029700131,0.2742289313607417,2.471061418533903,-3.99932861328125,3.85589599609375,34.10157894736843,0.009874559494363147,34.09,34.11,0.16271186440677965,0.0007017543859647727,0,1,0
0,0.041287860479651044,0.00014956524383103655,0.04059515794486131,0.04197126499383966,-0.0412878409332814,0.00014956517302432707,-0.04197124512393483,-0.04059513872642877,-2.8408231023750633e-05,1.029087957214385e-07,-2.8878449463170872e-05,-2.7931615054542318e-05,-2.8408231023750633e-05,1.029087957214385e-07,-2.8878449463170872e-05,-2.7931615054542318e-05,1.1451525423728823,27.387404389865406,-59.31,37.14,3.8206937817147457,0.007020586804786918,3.808299340412681,3.8338077083471465,0.0344103419987318,0.017333737793041374,0.011327198551614927,0.06569069592625644,0.0024948914992441885,0.008284946064500453,2.7714878336748683e-08,0.03548337080971509,0.7075152012027371,0.00874923904872212,0.6920690367701993,0.7196306993918811,-0.9158374432484777,2.651276868796982,-4.07867431640625,3.936767578125,34.11444444444445,0.00831479419283228,34.11,34.13,0.16271186440677965,0.0011558307533541539,0,1,0
0,0.041325337195339575,0.00018344272660920433,0.04059515794486131,0.04197126499383966,-0.04132531763122782,0.00018344263976432268,-0.04197124512393483,-0.04059513872642877,-2.8434016985651373e-05,1.2621829507754135e-07,-2.8878449463170872e-05,-2.7931615054542318e-05,-2.8434016985651373e-05,1.2621829507754135e-07,-2.8878449463170872e-05,-2.7931615054542318e-05,-1.12768707482993,23.24718924032639,-54.46,31.37,3.7969785875043143,0.005188771202011193,3.786757480364111,3.8051168668790747,0.014290686898388036,0.010483045846793404,0.004406433605729991,0.041258198992697684,0.034470647248879334,0.063222803469768,3.7028242305670034e-08,0.27768887357320093,0.703028057152545,0.01810831964494207,0.6623360561167273,0.7203113884404924,0.03494854121245155,2.8340344165341675,-4.510498046875,4.449462890625,34.1142105263158,0.008153649149911625,34.11,34.13,0.16326530612244897,0.0006315789473685197,0,1,0
0,0.04129725337801349,0.0006784823979796296,0.03853099737139378,0.042659318518328826,-0.04129723382719711,0.0006784820767746203,-0.04265929832268786,-0.03853097913016968,-2.8414693834454845e-05,4.6683176322137645e-07,-2.935186666748515e-05,-2.651136344159949e-05,-2.8414693834454845e-05,4.6683176322137645e-07,-2.935186666748515e-05,-2.651136344159949e-05,0.23176271186440675,37.058459812470716,-78.84,92.49,3.745184163253111,0.02656273828295932,3.717956159861995,3.786939840919127,0.11337067848643118,0.05668181526900585,0.048770865634808404,0.23363586224863453,0.2097273486034289,0.2645901097939989,1.637306248358783e-07,0.8274964159532905,0.5411736030623318,0.0812442643201533,0.38896693704429,0.6540058877953057,0.8515701506990769,2.716809208830084,-3.38287353515625,4.51202392578125,34.1188888888889,0.009938079900000618,34.11,34.13,0.16271186440677965,0.0,0,1,0
0,0.034909418347224386,0.010615183063346125,0.009632749342848445,0.04747569318975305,-0.03490940182051688,0.010615178037939406,-0.04747567071395907,-0.00963274478254242,-2.4019525589161526e-05,7.3038072043371205e-06,-3.2665787097685084e-05,-6.627840860399872e-06,-2.4019525589161526e-05,7.3038072043371205e-06,-3.2665787097685084e-05,-6.627840860399872e-06,-5.3728813559322015,39.499445756714344,-122.42,62.14,3.7143502097788295,0.034648110017450516,3.6282857878319845,3.760614885923458,0.48811294228722535,0.13804689007709292,0.26124372081612574,0.65971262526446,0.44312165089225025,0.4114912968819308,1.134081983877877e-08,1.3289787272328848,0.13143279568477073,0.14551210387438154,-0.10735818025758964,0.36558346731309477,-0.6393479945937693,2.846536384194652,-4.46014404296875,4.33502197265625,34.11842105263158,0.00987455949436666,34.11,34.13,0.16271186440677965,0.00042105263157901315,0,1,0
0,0.012342837714816013,0.0008310469280882316,0.010320802867337619,0.013073016965294318,-0.012342831871508414,0.0008310465346565957,-0.01307301077630757,-0.010320797981295449,-8.492524950862233e-06,5.718042264830949e-07,-8.994926881971256e-06,-7.101258064714148e-06,-8.492524950862233e-06,5.718042264830949e-07,-8.994926881971256e-06,-7.101258064714148e-06,4.839966101694899,56.93958032087605,-270.7,116.57,3.3527590553435656,0.09468572894053037,3.2486496333161754,3.653918049199966,0.49956598970788474,0.06804659102622325,0.37688559284659173,0.5811011262958643,0.4326597955984117,0.5187329492949193,7.36065430828603e-09,1.8911200868960076,-0.3025869186817441,0.09099445525700715,-0.4231527223699989,-0.13247039081166118,0.9260489487181973,2.805758339473361,-3.09295654296875,6.59027099609375,34.13666666666666,0.009428090415818756,34.13,34.15,0.10847457627118644,0.0008255933952526737,0,1,0
0,0.012796859428254485,0.0003372657430137326,0.012384963440805145,0.013073016965294318,-0.01279685337000531,0.0003372655833464419,-0.01307301077630757,-0.01238495757755454,-8.804915895205692e-06,2.320566634508267e-07,-8.994926881971256e-06,-8.521509677656977e-06,-8.804915895205692e-06,2.320566634508267e-07,-8.994926881971256e-06,-8.521509677656977e-06,-0.7222108843537408,29.27359063007639,-64.24,43.7,3.2875453953167666,0.014987574344424668,3.2646325581776843,3.3152258356395885,0.5293998581635885,0.04490366653167777,0.44282051807110073,0.5807187469805563,0.333818438965856,0.21643375392686107,0.0697610697735005,0.7045603700992302,-0.40978029115009407,0.028676307640402136,-0.43693523872042894,-0.34680039617910785,-0.7668947167787008,2.2575591191031896,-3.71246337890625,3.36456298828125,34.132222222222225,0.014740554623801224,34.11,34.15,0.16326530612244897,-0.002641898864808967,0,1,0
0,0.01280802337816,0.0003348255820161994,0.012384963440805145,0.013073016965294318,-0.012808017314625626,0.00033482542350412274,-0.01307301077630757,-0.01238495757755454,-8.81259728301239e-06,2.3037770366584983e-07,-8.994926881971256e-06,-8.521509677656977e-06,-8.81259728301239e-06,2.3037770366584983e-07,-8.994926881971256e-06,-8.521509677656977e-06,2.1424406779661003,35.88576932636091,-81.46,52.52,3.2511479721273675,0.012407915864461312,3.230427515706895,3.2701921785386197,0.2934124685860204,0.08670779798849035,0.15515468855422562,0.43420237836911635,0.08964456155787917,0.07611276780004368,3.8682743186413404e-07,0.23212815702393197,-0.21644282217306357,0.07214974047223631,-0.334869471940846,-0.1024997592620712,-0.15232758249893377,1.5832464402311188,-2.90374755859375,2.886962890625,34.129999999999995,0.012977713690460727,34.11,34.15,0.16271186440677965,0.0016842105263158284,0,1,0
0,0.012838985154243613,0.00032596859335272936,0.012384963440805145,0.013073016965294318,-0.012838979076051403,0.0003259684390336995,-0.01307301077630757,-0.01238495757755454,-8.833900622000437e-06,2.2428362716966895e-07,-8.994926881971256e-06,-8.521509677656977e-06,-8.833900622000437e-06,2.2428362716966895e-07,-8.994926881971256e-06,-8.521509677656977e-06,0.5451525423728815,37.254206222222976,-75.28,50.15,3.2035831318682506,0.012742941979162337,3.1838330399875954,3.224478596246974,0.06224504423141339,0.037112890105397506,0.018159568487791336,0.14021976371590636,8.26838185974399e-08,9.399878794635393e-08,2.230034212846732e-08,3.7022470200653856e-07,-0.03977676872614752,0.024710275089761452,-0.09223919091163313,-0.013041893385660697,-0.21114272432152692,2.60531470613743,-3.59954833984375,4.17022705078125,34.12444444444444,0.008958064164777567,34.11,34.13,0.16271186440677965,-2.0639834881324176e-05,0,1,0
0,0.013003281810785307,0.00020765001099528282,0.012384963440805145,0.013073016965294318,-0.013003275654812291,0.00020764991269026634,-0.01307301077630757,-0.01238495757755454,-8.946945408561047e-06,1.4287418664732502e-07,-8.994926881971256e-06,-8.521509677656977e-06,-8.946945408561047e-06,1.4287418664732502e-07,-8.994926881971256e-06,-8.521509677656977e-06,-2.267322033898305,35.808874829535085,-77.41,53.82,3.164913272480856,0.013394390288482182,3.1448036730573024,3.1854942493155676,0.0071942511213801555,0.003854834690679384,0.0027817097314183628,0.01602815313981895,0.0051198721845553035,0.01657483067095345,4.871701231312642e-08,0.07444464005582282,-0.02932248458424504,0.013789078415551286,-0.05574753946855371,-0.0129193456807839,0.47426815364260233,1.6981852205611179,-2.25982666015625,3.4820556640625,34.11842105263158,0.00987455949436666,34.11,34.13,0.13559322033898305,0.00042105263157901315,0,1,0
0,0.012913875333779827,0.0002901239417480284,0.012384963440805145,0.013073016965294318,-0.012913869220133364,0.0002901238043984608,-0.01307301077630757,-0.01238495757755454,-8.88542902519109e-06,1.9962061165075993e-07,-8.994926881971256e-06,-8.521509677656977e-06,-8.88542902519109e-06,1.9962061165075993e-07,-8.994926881971256e-06,-8.521509677656977e-06,2.3895578231292536,32.55777197215551,-68.66,48.58,3.122929820775259,0.012382158869986086,3.1064563853671183,3.1427255383603643,0.014269841594055597,0.002315939787621381,0.009766028419292676,0.01852407664950133,0.013241929400035666,0.029143104741418322,5.009973023106795e-07,0.12163056767982261,-0.08722447399081913,0.016063764346450123,-0.11195981391293039,-0.05935864673693381,0.3497873878952291,2.362316020322128,-3.30047607421875,3.71856689453125,34.121111111111105,0.009938079900000618,34.11,34.13,0.16326530612244897,0.0003302373581011868,0,1,0
0,0.012881110880232723,0.0003085671931911827,0.012384963440805145,0.013073016965294318,-0.012881104782097507,0.0003085670471102695,-0.01307301077630757,-0.01238495757755454,-8.862885348795171e-06,2.1231054379399853e-07,-8.994926881971256e-06,-8.521509677656977e-06,-8.862885348795171e-06,2.1231054379399853e-07,-8.994926881971256e-06,-8.521509677656977e-06,-1.6399322033898314,38.167852459253396,-78.67,52.58,3.0804641579947774,0.012247194740759311,3.0608116800814194,3.100106029577865,0.011207527529039895,0.0038001914808812156,0.005006186963271752,0.017722107107725062,0.0026055752698108977,0.005825813280306813,6.505050291483183e-08,0.01617732032044622,-0.1337345932624895,0.011307277528004173,-0.15167874715573293,-0.11447857390015606,0.37384885384952876,2.4086689529669125,-3.50799560546875,3.70941162109375,34.12111111111111,0.01662958838566182,34.11,34.15,0.16271186440677965,0.0016511867905055235,0,1,0
0,0.012817321398761166,0.0003324936285174189,0.012384963440805145,0.013073016965294318,-0.012817315330824999,0.00033249347110932706,-0.01307301077630757,-0.01238495757755454,-8.818994812800399e-06,2.2877319636127133e-07,-8.994926881971256e-06,-8.521509677656977e-06,-8.818994812800399e-06,2.2877319636127133e-07,-8.994926881971256e-06,-8.521509677656977e-06,-0.4489491525423742,37.17185863645965,-80.18,50.78,3.039706815745975,0.009489801539948424,3.0242472934724987,3.059398392508997,0.001829429011835462,0.0011854604778937393,0.0004783867543367489,0.004445736163602934,7.544213869815177e-08,4.4837728621503404e-08,2.634096546959286e-08,1.7273702149211978e-07,-0.17184303818195434,0.011172950779495342,-0.190391819822644,-0.15367661938317284,0.14669688108837042,2.374591015627396,-3.39813232421875,3.88336181640625,34.12578947368421,0.008153649149911627,34.11,34.13,0.16271186440677965,-0.0006315789473685197,0,1,0
0,0.012726649884939219,0.0003440188018868088,0.012384963440805145,0.013073016965294318,-0.012726643859928477,0.0003440186390225053,-0.01307301077630757,-0.01238495757755454,-8.756608017214425e-06,2.3670312501009955e-07,-8.994926881971256e-06,-8.521509677656977e-06,-8.756608017214425e-06,2.3670312501009955e-07,-8.994926881971256e-06,-8.521509677656977e-06,1.2714965986394562,38.23349484015506,-85.19,65.74,3.004698825614911,0.006543816236445808,2.992529520099376,3.0192744198177137,0.0013967518687561136,0.0008950462666334965,0.0002258674797241092,0.0025104261322723906,0.0015772244244668715,0.005989664410714084,3.171838064940091e-08,0.026187072718276562,-0.20966509939289454,0.010281101136183732,-0.22604937144446835,-0.1924792395784695,-0.08117069973247519,2.2649224252386695,-3.36151123046875,3.97491455078125,34.12222222222222,0.01181127312526164,34.11,34.15,0.16326530612244897,0.0003508771929823863,0,1,0
0,0.012647079069181985,0.00033413317597777014,0.012384963440805145,0.013073016965294318,-0.012647073081841397,0.00033413301779348947,-0.01307301077630757,-0.01238495757755454,-8.701859088824329e-06,2.2990129170181392e-07,-8.994926881971256e-06,-8.521509677656977e-06,-8.701859088824329e-06,2.2990129170181392e-07,-8.994926881971256e-06,-8.521509677656977e-06,-0.6904406779661023,38.14371433402407,-78.19,51.5,2.98482316867687,0.006607667428526009,2.972360532250588,2.991678458516088,0.007572022383381673,0.005537660227881499,0.002103825865834542,0.018912689240354667,0.012606173288326479,0.04296217401167003,7.237255580938573e-08,0.18833442309211185,-0.24136735626786318,0.007594311430124352,-0.2526808258585239,-0.22781851370622058,-0.5963578709301819,2.404069299479835,-3.94134521484375,3.57513427734375,34.124736842105264,0.014278589438158702,34.11,34.15,0.16271186440677965,-0.0018245614035087578,0,1,0
0,0.012580221873430473,0.000310197352088606,0.012384963440805145,0.013073016965294318,-0.012580215917741193,0.0003101972052359477,-0.01307301077630757,-0.01238495757755454,-8.655857803205633e-06,2.134321793068446e-07,-8.994926881971256e-06,-8.521509677656977e-06,-8.655857803205633e-06,2.134321793068446e-07,-8.994926881971256e-06,-8.521509677656977e-06,0.49084745762711773,36.02863177276385,-78.7,46.81,2.9705292740666005,0.008301947435070045,2.957758028761479,2.9844930000914274,0.01039103496772079,0.0050180427748059255,0.003498269973207036,0.01836525026612187,0.001305501517014263,0.005377253234823973,5.798133743961653e-08,0.023476482431207923,-0.2613977000610915,0.004657948132371198,-0.26914946898129355,-0.2536747179349499,-0.010847327800186162,2.3154285801845225,-3.59039306640625,3.839111328125,34.107777777777784,0.01749779527558133,34.09,34.13,0.16271186440677965,0.0004953560371518975,0,1,0
0,0.012642398432960963,0.00033295086498368845,0.012384963440805145,0.013073016965294318,-0.012642392447836263,0.0003329507073591337,-0.01307301077630757,-0.01238495757755454,-8.698638563624897e-06,2.2908779922553682e-07,-8.994926881971256e-06,-8.521509677656977e-06,-8.698638563624897e-06,2.2908779922553682e-07,-8.994926881971256e-06,-8.521509677656977e-06,1.15993220338983,39.831056778137324,-79.01,52.97,2.943717801801285,0.00837878794127991,2.9323034504686563,2.9585876928490555,0.001348644187702669,0.0007584809148031379,0.00047575242951085757,0.003091398215971249,0.0007493370720693547,0.0030243681949804167,3.3643097890889706e-08,0.013565424117314547,-0.2818204496419614,0.007963289157127802,-0.2964102087901718,-0.27015479110830243,0.5444467511425539,2.31020958176668,-3.06243896484375,4.03594970703125,34.12473684210527,0.01568385729026461,34.11,34.15,0.16271186440677965,-0.0017894736842105317,0,1,0
0,0.012633037160518916,0.0003303746763442609,0.012384963440805145,0.013073016965294318,-0.012633031179826018,0.0003303745199393179,-0.01307301077630757,-0.01238495757755454,-8.692197513226058e-06,2.2731524523074515e-07,-8.994926881971256e-06,-8.521509677656977e-06,-8.692197513226058e-06,2.2731524523074515e-07,-8.994926881971256e-06,-8.521509677656977e-06,-0.5183673469387775,34.55478837115431,-71.76,46.44,2.917299207134987,0.008301467947601235,2.907932222922742,2.9301324437282203,0.004726624544150981,0.004478504569955172,0.0008449925547046424,0.012809522242439326,0.009825291472979995,0.027895873089802115,7.250224593607912e-08,0.11377843824838,-0.3175521490200283,0.011916379224150809,-0.33717867970329085,-0.29845152311803874,0.3055468386515198,2.455769581025062,-3.411865234375,4.0130615234375,34.126666666666665,0.0074535599250004645,34.11,34.13,0.16326530612244897,0.000928792569659588,0,1,0
0,0.012808023378159984,0.00033482558201620007,0.012384963440805145,0.013073016965294318,-0.012808017314625633,0.0003348254235041226,-0.01307301077630757,-0.01238495757755454,-8.812597283012403e-06,2.3037770366585015e-07,-8.994926881971256e-06,-8.521509677656977e-06,-8.812597283012403e-06,2.3037770366585015e-07,-8.994926881971256e-06,-8.521509677656977e-06,-0.08457627118644032,34.279505777444896,-72.09,49.8,2.894449737140417,0.00645831206968547,2.8827318912851347,2.906731549357096,0.015856712112882695,0.002792436466643526,0.012313721755954481,0.02053283078636999,0.009795027522441636,0.020520298498708248,1.0103189090893139e-07,0.07048323302574289,-0.3558045949542475,0.009136877050453148,-0.3689170065779756,-0.3394288091648985,-0.060334946848093776,2.041442749301151,-3.51715087890625,3.338623046875,34.12555555555556,0.008314794192832282,34.11,34.13,0.16271186440677965,0.0003302373581011868,0,1,0
0,0.014486569104040795,0.004038236362172848,0.012384963440805145,0.028898248028545334,-0.014486562245854588,0.004038234450403637,-0.02889823434762726,-0.01238495757755454,-9.967525492195151e-06,2.778520130914906e-06,-1.9883522581199616e-05,-8.521509677656977e-06,-9.967525492195151e-06,2.778520130914906e-06,-1.9883522581199616e-05,-8.521509677656977e-06,-0.5474576271186424,34.05240912820479,-72.93,51.17,2.8721699787715345,0.009913604271974673,2.862294438603403,2.9073348566995834,0.0075449069270703915,0.009635395386281649,0.0017554068384711139,0.04627559143813262,0.19417658527265566,0.8069343812147475,2.9538111137594747e-08,3.6170255902567656,-0.371470797779572,0.0018421612795737749,-0.37337868086018633,-0.3668960707134924,-0.6992595663141672,2.281396498873758,-3.52020263671875,3.363037109375,34.129999999999995,0.012977713690460727,34.11,34.15,0.16271186440677965,0.0011228070175436612,0,1,0
0,0.034444517317164115,0.0026043878526521283,0.025457980406099465,0.03853099737139378,-0.034444501010548634,0.0026043866196909867,-0.03853097913016968,-0.02545796835386211,-2.3699649099759966e-05,1.7919565444679741e-06,-2.651136344159949e-05,-1.7516436559628233e-05,-2.3699649099759966e-05,1.7919565444679741e-06,-2.651136344159949e-05,-1.7516436559628233e-05,1.2631525423728835,45.26393910104191,-109.89,110.91,3.1138169142139094,0.04091252409809181,2.9884283407295835,3.1845251513976174,0.2636708337333079,0.04585025808107003,0.15627085512065,0.3390572423292844,0.08857922887120069,0.2129434800386276,2.7823630510681596e-08,0.7333949703493303,-0.346870098246218,0.013406148554034998,-0.3655502787476307,-0.32189636068269456,0.41168809417904517,3.0629582288905257,-5.31768798828125,5.50689697265625,34.13,0.0,34.13,34.13,0.16271186440677965,0.0,0,1,0
0,0.03026967444130265,0.004484660188342784,0.006880535244891746,0.035090729748947905,-0.03026966011112819,0.004484658065229001,-0.03509071313640453,-0.006880531987530299,-2.082713646462875e-05,3.0856833270943854e-06,-2.4144277420028106e-05,-4.7341720431427655e-06,-2.082713646462875e-05,3.0856833270943854e-06,-2.4144277420028106e-05,-4.7341720431427655e-06,-2.340170068027208,38.7468533149185,-97.04,143.2,3.091560631982213,0.01570873951392722,3.07336981363852,3.12851569804504,0.16727647680717997,0.037811584320068925,0.10889988242899844,0.21587634731946845,0.08386385268931477,0.1755925644666359,8.489038982872898e-08,0.6468803334572715,-0.27626945386529805,0.02683599337629,-0.31805165635393584,-0.2308167807358284,0.2653217167817345,3.0203293196976375,-4.59442138671875,4.864501953125,34.1478947368421,0.006137844099835939,34.13,34.15,0.16326530612244897,0.0005964912280700568,0,1,0
0,0.029356950378204794,0.0038725865445302953,0.021329659259164413,0.03853099737139378,-0.029356936480129298,0.0038725847111825,-0.03853097913016968,-0.02132964916134393,-2.0199134050742455e-05,2.6645442979711996e-06,-2.651136344159949e-05,-1.4675933333742575e-05,-2.0199134050742455e-05,2.6645442979711996e-06,-2.651136344159949e-05,-1.4675933333742575e-05,0.9103050847457625,42.88091171370367,-94.01,91.96,3.096246103543827,0.019202254830823728,3.0709058285647237,3.122243798772673,0.08135779109557967,0.012909246985534372,0.05910393879326395,0.10291320908333548,0.04064775888709209,0.14823813140039707,3.8285054682063446e-08,0.6465617513712645,-0.18608597446294822,0.022586112735420584,-0.22563680379824308,-0.15257105595465878,0.633091561142569,2.3566130970051544,-3.40423583984375,4.06341552734375,34.14111111111111,0.01662958838566161,34.11,34.15,0.16271186440677965,0.0,0,1,0
0,0.03500239855323637,0.0022456740969768576,0.02476992688161029,0.04059515794486131,-0.03500238198251056,0.002245673033836858,-0.04059513872642877,-0.02476991515510908,-2.4083500887041787e-05,1.5451425142848719e-06,-2.7931615054542318e-05,-1.7043019355313955e-05,-2.4083500887041787e-05,1.5451425142848719e-06,-2.7931615054542318e-05,-1.7043019355313955e-05,0.0451525423728805,34.59057905288692,-86.73,93.46,3.1121918257511574,0.012326077856296845,3.080481992205225,3.1312674048577933,0.05667207051399171,0.004562883406353996,0.04611695405349589,0.06304965803108614,0.04432592117254827,0.08465196161818367,5.4243330049885685e-08,0.3373642572557505,-0.14007713861354243,0.0037448713884176152,-0.1497876906689727,-0.13640479037149433,-0.9942970559851407,2.4015212951713214,-4.16412353515625,3.57513427734375,34.1478947368421,0.006137844099835937,34.13,34.15,0.16271186440677965,-0.0005964912280700568,0,1,0
0,0.035909841087625495,0.004679929391575767,0.025457980406099465,0.058484549581579844,-0.035909824087301014,0.0046799271760182524,-0.058484521894007546,-0.02545796835386211,-2.470786932992606e-05,3.2200388633905937e-06,-4.024046236671351e-05,-1.7516436559628233e-05,-2.470786932992606e-05,3.2200388633905937e-06,-4.024046236671351e-05,-1.7516436559628233e-05,-4.351796610169496,48.91689342339639,-122.75,117.17,3.101140207988511,0.03531223385516776,3.059433421395042,3.2012583720531826,0.060480378462150215,0.0427458466523766,0.019263851698483936,0.18467704321098505,0.176286930498868,0.4931335516219043,2.063402448904128e-08,2.054194907124249,-0.15725318147621845,0.008422958883364785,-0.17007271083382944,-0.14345271661989045,2.2421367857125545,3.4649268467196706,-2.99835205078125,7.99713134765625,34.145555555555546,0.011653431646332696,34.13,34.16,0.08135593220338982,0.0017337461300306147,0,1,0
0,0.03497371384342249,0.008232178650192382,0.017201338112229368,0.04816374671424223,-0.03497369728627645,0.008232174752940155,-0.0481637239127121,-0.01720132996882575,-2.406376429004272e-05,5.664174171454401e-06,-3.313920430199936e-05,-1.1835430107856916e-05,-2.406376429004272e-05,5.664174171454401e-06,-3.313920430199936e-05,-1.1835430107856916e-05,3.067959183673456,147.26735486210092,-523.08,303.81,3.233339349995147,0.03189894372964161,3.1822309184834046,3.2835111399285615,0.22492616801292276,0.03644360151167742,0.15420054802349278,0.2760552513269855,0.08677270204791077,0.2318582089831065,3.8365444154919714e-08,0.9601388945856058,-0.1683963759537542,0.005527686650593163,-0.17329536219462693,-0.15540622329123344,-3.261019041757134,4.642738817579257,-9.27276611328125,7.81402587890625,34.15777777777776,0.009162456945817113,34.15,34.18,0.13605442176870747,0.0014860681114550473,0,1,0
0,0.04242221899299797,0.00035512474805729266,0.04197126499383966,0.043347372042818,-0.042422198909604025,0.00035512457993524936,-0.04334735152144089,-0.04197124512393483,-2.9188729657890412e-05,2.4434460318027545e-07,-2.9825283871799426e-05,-2.8878449463170872e-05,-2.9188729657890412e-05,2.4434460318027545e-07,-2.9825283871799426e-05,-2.8878449463170872e-05,-1.0119661016949149,25.882667877817912,-51.98,55.17,3.1703375773753035,0.0038909164711691518,3.164918909174042,3.1796383208753736,0.10308227679425824,0.02474266009265001,0.06316911974688134,0.1484340695684263,0.040142747161436856,0.06391734431800668,3.906486116811436e-07,0.25400451692558557,-0.12043435110872931,0.020741147171924535,-0.1525693415748682,-0.08535820414372897,1.8327457437444266,2.114166758129604,-2.14996337890625,5.50537109375,34.176842105263134,0.019208723779890826,34.16,34.21,0.18983050847457628,-0.0016140350877194135,0,1,0
0,0.04034708422514755,0.0020350058462245664,0.035090729748947905,0.04472347909179635,-0.04034706512415732,0.0020350048828184733,-0.04472345791894695,-0.03509071313640453,-2.776092721897322e-05,1.4001916191012869e-06,-3.0772118280427976e-05,-2.4144277420028106e-05,-2.776092721897322e-05,1.4001916191012869e-06,-3.0772118280427976e-05,-2.4144277420028106e-05,1.9816610169491522,58.627317433466224,-195.07,124.38,3.1861437079259343,0.027949823977457672,3.1610158532038564,3.2311350674299413,0.05380931690390309,0.01929703951942981,0.027246632863179368,0.08260596102388151,0.04393002357123848,0.11825409586923083,2.544980093333038e-08,0.3927090331927828,-0.05316885199972448,0.015577090120944943,-0.08142559745719968,-0.03129296590613667,-0.05384179475401412,2.350563363459453,-4.37469482421875,3.87115478515625,34.17277777777778,0.018500917561498048,34.16,34.21,0.16271186440677965,0.0029824561403511787,0,1,0
0,0.0363413135198099,0.0028527010606886494,0.028210194504056162,0.04678763966526387,-0.036341296315219186,0.002852699710171848,-0.04678761751520604,-0.02821018114887423,-2.5004745176518205e-05,1.9628091606655797e-06,-3.219236989337081e-05,-1.941010537688534e-05,-2.5004745176518205e-05,1.9628091606655797e-06,-3.219236989337081e-05,-1.941010537688534e-05,-0.8288135593220333,48.31016375796268,-94.75,171.94,3.1861686309094925,0.01853553145728009,3.1558551828487222,3.2215681631829836,0.03172135710176561,0.01434900138985413,0.017432863594500796,0.06449077982891174,0.009596362788210954,0.0280826439270515,1.927385229194556e-08,0.09880238380147366,-0.02795256913911853,0.0033302833286821317,-0.036381952651152266,-0.024646028552690713,0.3547971361032491,2.4602336348787364,-3.82843017578125,3.87725830078125,34.181578947368415,0.006698906348083334,34.18,34.21,0.16271186440677965,-0.0004736842105263337,0,1,0
0,0.03569453182145881,0.004089836973913932,0.022705766308142764,0.03990710442037213,-0.03569451492306529,0.004089835037716118,-0.03990708552767574,-0.022705755558849988,-2.455972517075288e-05,2.814024080072795e-06,-2.745819785022804e-05,-1.5622767742371126e-05,-2.455972517075288e-05,2.814024080072795e-06,-2.745819785022804e-05,-1.5622767742371126e-05,2.694183673469388,43.033962056961535,-102.08,86.42,3.1670304824384092,0.007365377532658815,3.1559336338596444,3.1787101467615346,0.04948645289966382,0.020882139445141862,0.025289455621566363,0.0981875793287927,0.07314543808101265,0.0920145972053686,2.7006531807538536e-06,0.2919637847055647,-0.07069888867802128,0.02287823019199432,-0.11318512573514597,-0.038716392602802435,-0.6273099269819614,2.2297180027049235,-4.01763916015625,3.53546142578125,34.20000000000001,0.014142135623731487,34.18,34.21,0.16326530612244897,0.0002476780185758608,0,1,0
0,0.03244148964785351,0.007968980767779797,0.018577445161207715,0.0653650848264716,-0.0324414742895051,0.007968976995129877,-0.06536505388153785,-0.018577436366331808,-2.232146015715817e-05,5.483080112288418e-06,-4.497463440985627e-05,-1.2782264516485466e-05,-2.232146015715817e-05,5.483080112288418e-06,-4.497463440985627e-05,-1.2782264516485466e-05,-10.021254237288135,111.97033260881467,-282.9,230.64,3.156302389152078,0.02226610138423378,3.1063143210874933,3.185606658213226,0.14265105342222945,0.027253030780168868,0.10332152990559987,0.18794999762063286,0.11496197631988278,0.26275127101081375,2.68115014634418e-08,1.0573929276750866,-0.1783255905045728,0.03611799406570429,-0.2365461217145466,-0.11958795704657485,0.4625870210207881,2.3252075415849873,-2.99835205078125,4.8095703125,34.209999999999994,0.0182574185835045,34.18,34.23,0.05423728813559322,-0.0017337461300309081,0,1,0
0,0.03175738936341587,0.00810244874810068,0.003440267622445873,0.06192481720402572,-0.03175737432893209,0.008102444912264771,-0.0619247878877727,-0.0034402659937651497,-2.1850762991019075e-05,5.574913139603989e-06,-4.260754838828489e-05,-2.3670860215713828e-06,-2.1850762991019075e-05,5.574913139603989e-06,-4.260754838828489e-05,-2.3670860215713828e-06,2.304711864406776,127.2968825473464,-254.17,436.48,3.085450867082824,0.05590203022619071,3.001052143817157,3.183229634289368,0.16821836622273678,0.07325648018257735,0.07205488300834294,0.26436169910622154,0.20495714567737575,0.46634757171064767,3.401387882462359e-08,1.789761802202135,-0.2810554450531671,0.018547261600903992,-0.3002399005836377,-0.24274363301573054,-0.19391582858177922,2.1030141952043313,-3.01361083984375,3.45306396484375,34.21000000000001,0.017770466332771757,34.18,34.23,0.10847457627118644,-0.0018947368421050109,0,1,0
0,0.03376610969840074,0.006580561712311706,0.022017712783653588,0.05298012138566645,-0.03376609371295481,0.006580558596962787,-0.05298009630398331,-0.02201770236009696,-2.3232868788593127e-05,4.527774392222e-06,-3.64531247321993e-05,-1.514935053805685e-05,-2.3232868788593127e-05,4.527774392222e-06,-3.64531247321993e-05,-1.514935053805685e-05,8.362823129251712,134.68937741696158,-334.69,306.89,3.1391728630920315,0.02431713420675476,3.0852812147731243,3.180002491169371,0.21132911129985338,0.03524403959038627,0.1462928929304972,0.2591802153922452,0.14282122263295344,0.33593113525541857,2.2028757928893583e-08,1.3963395531368543,-0.2642889197535051,0.026368334599821987,-0.29842460522152814,-0.2147240395328284,0.29150203203149233,2.054463739586604,-2.95257568359375,3.34930419921875,34.21333333333333,0.007453559924997816,34.21,34.23,0.10884353741496598,0.000928792569659258,0,1,0
0,0.033995460873230424,0.0007894333908954238,0.03096240860201286,0.035090729748947905,-0.03399544477920583,0.0007894330171643434,-0.03509071313640453,-0.03096239394388635,-2.339067452336454e-05,5.431719126611819e-07,-2.4144277420028106e-05,-2.1303774194142445e-05,-2.339067452336454e-05,5.431719126611819e-07,-2.4144277420028106e-05,-2.1303774194142445e-05,-3.220135593220343,80.30892079106579,-213.26,306.78,3.187691076551889,0.009262370355207836,3.1755122921213825,3.209926188661906,0.14379743586079033,0.048025820878453605,0.07056097196625515,0.21906274122983768,0.029443687259372034,0.06494781500405997,9.226095354364361e-08,0.22737310740437966,-0.14136060852073493,0.039158017854851394,-0.20742863719987567,-0.08082071247076766,0.3557063213944731,1.9124468832411792,-2.52838134765625,3.3538818359375,34.22578947368422,0.00815364914990873,34.21,34.23,0.16271186440677965,0.0009122807017542045,0,1,0
0,0.03454679554377737,0.0003123844345347781,0.03371462269996956,0.035090729748947905,-0.034546779188741654,0.00031238428664671935,-0.03509071313640453,-0.03371460673889847,-2.3770021927428305e-05,2.1493700766745872e-07,-2.4144277420028106e-05,-2.3197443011399553e-05,-2.3770021927428305e-05,2.1493700766745872e-07,-2.4144277420028106e-05,-2.3197443011399553e-05,1.9345084745762695,42.03546732098974,-95.63,55.74,3.16500148712697,0.00726307957190493,3.1490538500344147,3.1744807811970297,0.028437314371333122,0.01682579706666097,0.009241466749382313,0.06382194412086406,0.0031329708739201356,0.010732137101301487,4.541587750317433e-08,0.0463600582101279,-0.05055821719796132,0.011229823302720165,-0.07558481052907562,-0.039976979542847235,-0.2839730239380527,2.108328091600669,-3.6407470703125,3.302001953125,34.238888888888894,0.009938079900000618,34.23,34.25,0.16271186440677965,0.0003302373581011868,0,1,0
0,0.03468351439771958,0.0003381739424656202,0.034402676224458736,0.035090729748947905,-0.03468349797795883,0.00033817378236837434,-0.03509071313640453,-0.0344026599376515,-2.386409172767884e-05,2.3268155269297076e-07,-2.4144277420028106e-05,-2.367086021571383e-05,-2.386409172767884e-05,2.3268155269297076e-07,-2.4144277420028106e-05,-2.367086021571383e-05,-2.1153898305084744,45.28103061990279,-97.27,49.86,3.155398007538693,0.0039893473159337825,3.149199493010918,3.162180653621859,0.022530775593900355,0.00986617443885671,0.009940008443729064,0.04291402150244957,0.02941840322979115,0.055147136630030825,2.8931896478567865e-07,0.20098076734577158,-0.05707627431177195,0.01217545940425435,-0.07972462125539259,-0.04100474429234435,-0.5398392973111817,2.0494254671176995,-3.375244140625,3.02276611328125,34.25105263157894,0.012093816097976688,34.23,34.27,0.13559322033898305,-0.00021052631578950657,0,1,0
0,0.03650428188769433,0.0005605440514597459,0.034402676224458736,0.03715489032241543,-0.036504264605951596,0.0005605437860887381,-0.037154872732663616,-0.0344026599376515,-2.5116876030252013e-05,3.8568394505948857e-07,-2.5564529032970932e-05,-2.367086021571383e-05,-2.5116876030252013e-05,3.8568394505948857e-07,-2.5564529032970932e-05,-2.367086021571383e-05,2.168197278911563,61.86189974408701,-152.38,117.49,3.112625536969433,0.0237971675540518,3.0907805729832076,3.1502429770125437,0.023578402180122415,0.009152696973759273,0.01328821546142302,0.04182835166028313,0.010308111214102765,0.028387261486491868,2.3686978711801032e-08,0.10475592976436432,-0.10784194736373777,0.014884807972645993,-0.13130473746225887,-0.08275816633327937,0.5644956830121743,2.1185049760295485,-3.00445556640625,3.80401611328125,34.24111111111111,0.011967032904745212,34.23,34.27,0.13605442176870747,0.0007017543859650221,0,1,0
0,0.025420788323694633,0.009267099758720998,0.006880535244891746,0.04747569318975305,-0.025420776289064664,0.009267095371519662,-0.04747567071395907,-0.006880531987530299,-1.7490846440476104e-05,6.376254613523502e-06,-3.2665787097685084e-05,-4.7341720431427655e-06,-1.7490846440476104e-05,6.376254613523502e-06,-3.2665787097685084e-05,-4.7341720431427655e-06,1.8541016949152456,102.83795074952894,-264.07,306.41,3.1103017892295717,0.02672424228968923,3.0746803734641794,3.172080428358853,0.06499279317164838,0.03218477369354239,0.021880230217229305,0.11197697039745909,0.07270490605451535,0.16754133278280448,3.0627625768886446e-08,0.6763688623925277,-0.15148156394559048,0.009931937027748493,-0.1660971383184787,-0.13377379475298717,-0.023240892183621627,2.3443408352121704,-3.45916748046875,3.69720458984375,34.25777777777777,0.009749960430437216,34.25,34.27,0.08135593220338982,-0.000928792569659588,0,1,0
0,0.02762979561265031,0.004966620425392312,0.019953552210186066,0.04816374671424223,-0.027629782532239005,0.00496661807411042,-0.0481637239127121,-0.01995354276383787,-1.9010760252157668e-05,3.41729745287629e-06,-3.313920430199936e-05,-1.372909892511402e-05,-1.9010760252157668e-05,3.41729745287629e-06,-3.313920430199936e-05,-1.372909892511402e-05,-2.5309152542372764,100.26339073428147,-177.18,328.81,3.139825012151822,0.03964131633041578,3.0661406855761664,3.193666642623554,0.12061928631986515,0.0441789381922095,0.060125781591716415,0.1817960016623747,0.1368166332833407,0.27666584061668525,2.8434093746199096e-08,1.1303123429260702,-0.17315210123480818,0.002443418669453722,-0.17531775842864877,-0.1673384123719672,-0.09998340464703202,2.3808243137915377,-3.2989501953125,4.327392578125,34.25842105263157,0.009874559494366657,34.25,34.27,0.08135593220338982,-0.0001403508771930044,0,1,0
0,0.029944275346180944,0.0008444706786471062,0.027522140979566984,0.031650462126502035,-0.029944261170055858,0.0008444702788604421,-0.03165044714263938,-0.027522127950121197,-2.060324468235307e-05,5.810404766217894e-07,-2.177719139845672e-05,-1.8936688172571062e-05,-2.060324468235307e-05,5.810404766217894e-07,-2.177719139845672e-05,-1.8936688172571062e-05,-0.010576271186441296,55.86401349773118,-116.12,86.06,3.1701628404432776,0.0077654318430945436,3.1604318544907697,3.188114025265001,0.1490560043461079,0.014247797725229638,0.12190573272443034,0.17673072835699055,0.08006532062777638,0.14548404310837512,1.0956798357497632e-07,0.5956688908529792,-0.1667953550407104,0.005117966956837307,-0.17387588421485595,-0.1573999878357523,0.597150319117476,1.8000017728830326,-2.520751953125,3.01361083984375,34.263333333333335,0.009428090415822106,34.25,34.27,0.16271186440677965,0.0001651186790505934,0,1,0
0,0.03492222684499133,0.0048914104188203635,0.027522140979566984,0.053668174910155624,-0.0349222103122201,0.004891408103144164,-0.05366814950273634,-0.027522127950121197,-2.4028338512849094e-05,3.3655489917748308e-06,-3.6926541936513574e-05,-1.8936688172571062e-05,-2.4028338512849094e-05,3.3655489917748308e-06,-3.6926541936513574e-05,-1.8936688172571062e-05,2.8171428571428554,95.46015652801823,-245.93,303.04,3.1294558395310443,0.02312602233536263,3.0927677401986493,3.182576037963578,0.07820748965236302,0.015934285631252407,0.05112101933702028,0.1127358378774144,0.04009465950039474,0.1173274269494248,2.2994845583212964e-08,0.5035150744587229,-0.1428690448167625,0.0081498769973702,-0.15604387804307376,-0.12943153345591218,-0.992790281310562,2.2729896598287946,-4.28466796875,3.31573486328125,34.2657894736842,0.008153649149911629,34.25,34.27,0.16326530612244897,0.001052631578947533,0,1,0
0,0.036785120060955176,0.003794405610924751,0.020641605734675238,0.06605313835096077,-0.03678510264625902,0.003794403814589124,-0.06605310708029088,-0.020641595962590898,-2.5310107542217065e-05,2.6107516819887437e-06,-4.5448051614170555e-05,-1.4202516129428297e-05,-2.5310107542217065e-05,2.6107516819887437e-06,-4.5448051614170555e-05,-1.4202516129428297e-05,-3.435186440677963,44.0327620156623,-163.2,62.08,3.1145137120894018,0.011681166002162536,3.0994778995436283,3.150833141044234,0.03453926224928135,0.012434240804307078,0.016092406037665905,0.06241727240116505,0.00777369197205175,0.023470597925094518,2.642332308511186e-08,0.0945992820717394,-0.11575319276390823,0.007341748091268045,-0.1279532612941996,-0.10391746276333846,0.9981534734779806,2.40124064900712,-3.23638916015625,4.46014404296875,34.25666666666666,0.009428090415822106,34.25,34.27,0.16271186440677965,0.0003302373581011868,0,1,0
0,0.03699682397219488,0.00028943589670308743,0.036466836797926255,0.03715489032241543,-0.03699680645727449,0.0002894357596792513,-0.037154872732663616,-0.03646681953391059,-2.5455771026574478e-05,1.9914720028082177e-07,-2.5564529032970932e-05,-2.5091111828656657e-05,-2.5455771026574478e-05,1.9914720028082177e-07,-2.5564529032970932e-05,-2.5091111828656657e-05,1.8347118644067801,33.42600941774151,-69.19,45.47,3.132993416476772,0.012168258438685875,3.1052779500902283,3.1435199955057485,0.031015323151318427,0.008058385681508698,0.013040776036428243,0.040212811760746967,0.03128448267513364,0.07615598290643451,1.319978345515338e-07,0.3366716401911735,-0.09129330868426243,0.006675685801598527,-0.10258385442960352,-0.08067724288508912,0.2237315213414043,2.498047009188867,-4.05426025390625,3.91693115234375,34.269999999999996,7.105427357601002e-15,34.27,34.27,0.16271186440677965,0.0,0,1,0
0,0.03699106805467984,0.00029305418150783074,0.036466836797926255,0.03715489032241543,-0.036991050542484416,0.0002930540427710369,-0.037154872732663616,-0.03646681953391059,-2.5451810650991427e-05,2.016367715361195e-07,-2.5564529032970932e-05,-2.5091111828656657e-05,-2.5451810650991427e-05,2.016367715361195e-07,-2.5564529032970932e-05,-2.5091111828656657e-05,-1.5074576271186468,30.831952960635633,-75.8,51.07,3.13672697516524,0.004613484591184471,3.1278822680528338,3.143992049918612,0.015103110493458364,0.008074954748050032,0.004773869715663109,0.030054255619413797,1.7560916445357672e-05,7.090322078386813e-05,1.0041025050311347e-07,0.00030989175304549366,-0.07159730001558355,0.004555330169769961,-0.079597710187683,-0.06476497537141943,-0.2765045970854018,2.0904589860159994,-3.4027099609375,3.277587890625,34.267777777777766,0.017497795275581523,34.25,34.29,0.16271186440677965,-0.00016511867905041742,0,1,0
0,0.0371034033239842,0.0001810383929681206,0.036466836797926255,0.03715489032241543,-0.03710338575860737,0.0001810383072614911,-0.037154872732663616,-0.03646681953391059,-2.5529103255777422e-05,1.2456398640810265e-07,-2.5564529032970932e-05,-2.5091111828656657e-05,-2.5529103255777422e-05,1.2456398640810265e-07,-2.5564529032970932e-05,-2.5091111828656657e-05,0.5347278911564618,30.882008539869435,-71.92,43.93,3.133832568081865,0.002014585097740174,3.130753131277297,3.137372062087149,0.0017870125925745386,0.0011120953940868276,0.0005046735736554376,0.004217454149389354,6.622691963899484e-08,2.193089286259138e-08,4.156860310827737e-08,1.0658120563021567e-07,-0.06093705505848214,0.0014902525757150228,-0.06414924133951705,-0.05948931886659009,-0.4346128137176741,1.9132074245534965,-3.20892333984375,3.057861328125,34.29,0.01333333333333305,34.27,34.31,0.16326530612244897,0.0019814241486068277,0,1,0
0,0.036838757621974416,0.0003428940571905415,0.036466836797926255,0.03715489032241543,-0.03683874018188524,0.00034289389485870985,-0.037154872732663616,-0.03646681953391059,-2.5347013020177902e-05,2.359292411904201e-07,-2.5564529032970932e-05,-2.5091111828656657e-05,-2.5347013020177902e-05,2.359292411904201e-07,-2.5564529032970932e-05,-2.5091111828656657e-05,-0.15071186440677983,29.21576518637588,-64.75,37.85,3.1308272507546455,0.0022137937073439225,3.127153795560298,3.135427662139373,0.0005644440825565874,0.0005791502640537908,9.941566102576083e-05,0.0017574495457365834,0.0009812773703039956,0.004161343242170261,1.0650849468878121e-07,0.01863636142654841,-0.0633127721367761,0.0027124595719122792,-0.06836911058933745,-0.05973623686166954,0.6089828150443936,2.2824248553989186,-3.2440185546875,3.63922119140625,34.284736842105254,0.014278589438157605,34.27,34.31,0.16271186440677965,0.001824561403508708,0,1,0
0,0.0368787327853755,0.0003372657430137335,0.036466836797926255,0.03715489032241543,-0.03687871532636145,0.00033726558334644076,-0.037154872732663616,-0.03646681953391059,-2.5374518046205395e-05,2.3205666345082526e-07,-2.5564529032970932e-05,-2.5091111828656657e-05,-2.5374518046205395e-05,2.3205666345082526e-07,-2.5564529032970932e-05,-2.5091111828656657e-05,0.8425762711864385,31.15162716004991,-67.11,58.1,3.124184382750345,0.0018192994055702609,3.1209353717657726,3.1282926147136525,0.0035039009443910605,0.0019430938397957962,0.0012334843739641018,0.0061817854636377675,0.004482185991294368,0.008427004572446384,2.9525205189062653e-07,0.022595791020272996,-0.07467385518048182,0.0032950972655829405,-0.07967739965203918,-0.06905132585551754,-0.11243024228930733,1.956061116514425,-2.8106689453125,3.33404541015625,34.29,0.006666666666666525,34.27,34.31,0.16271186440677965,-0.0007017543859648974,0,1,0
0,0.03674577741596235,0.00033781386438773203,0.036466836797926255,0.03715489032241543,-0.03674576001989159,0.00033781370446094895,-0.037154872732663616,-0.03646681953391059,-2.5283037722297618e-05,2.324337999369664e-07,-2.5564529032970932e-05,-2.5091111828656657e-05,-2.5283037722297618e-05,2.324337999369664e-07,-2.5564529032970932e-05,-2.5091111828656657e-05,-4.005593220338985,26.949947094139212,-63.92,38.53,3.1167587820097835,0.004158865999040925,3.106920830761693,3.124510921994696,0.002794636057548876,0.0016048238379952264,0.0008001798864762412,0.005875573708613301,6.973042440792869e-08,4.676651717881093e-08,3.064231685057095e-08,1.8968295899257637e-07,-0.08212531590344015,0.000893704573392355,-0.08325454205607546,-0.08011384152054302,-0.26623226572798736,2.255420051533548,-3.18756103515625,3.73382568359375,34.29105263157894,0.012093816097974738,34.27,34.31,0.16271186440677965,0.0002105263157892074,0,1,0
0,0.03672895242630304,0.00033413317597777117,0.036466836797926255,0.03715489032241543,-0.0367289350381975,0.00033413301779348876,-0.037154872732663616,-0.03646681953391059,-2.527146123982404e-05,2.2990129170181263e-07,-2.5564529032970932e-05,-2.5091111828656657e-05,-2.527146123982404e-05,2.2990129170181263e-07,-2.5564529032970932e-05,-2.5091111828656657e-05,2.8638435374149673,31.1155851075914,-66.99,44.76,3.1102691535722538,0.002121307210080237,3.1060412181733583,3.1146865456375963,0.0005279464025914487,0.00031846060617854856,0.00017893017948212753,0.0011947973996065241,0.0006747891405826095,0.0019246173480297285,5.5389653287607477e-08,0.0068418174529553365,-0.08671956674531939,0.0028443270786007637,-0.09270171129357888,-0.0833925674342175,0.3016370105980052,1.8784230897505783,-3.06549072265625,2.99835205078125,34.27888888888889,0.009938079899997088,34.27,34.29,0.16326530612244897,0.0009907120743032085,0,1,0
0,0.03686001024049144,0.0003404981893548821,0.036466836797926255,0.03715489032241543,-0.03685999279034095,0.0003404980281572954,-0.037154872732663616,-0.03646681953391059,-2.5361635945407723e-05,2.3428075744272596e-07,-2.5564529032970932e-05,-2.5091111828656657e-05,-2.5361635945407723e-05,2.3428075744272596e-07,-2.5564529032970932e-05,-2.5091111828656657e-05,-0.6472881355932198,30.883600026743846,-69.85,40.01,3.103329528492636,0.0026387639686559477,3.0980888168167815,3.1075757836117623,0.014126349819758835,0.0086765477410496,0.0016514407931825343,0.02837494891901791,0.033207737307838804,0.0573843692133098,1.268514650987207e-06,0.2303807099779802,-0.10968680343840127,0.011116634349425019,-0.12975921334887938,-0.0938939855158864,0.3554185280842771,1.9860172312261173,-3.09906005859375,3.28216552734375,34.28333333333333,0.00942809041581876,34.27,34.29,0.16271186440677965,-0.0004953560371516042,0,1,0
0,0.03539291541848707,0.008243159364298269,0.0006880535244891746,0.05917260310606901,-0.035392898662883886,0.008243155461847581,-0.059172575092760575,-0.00068805319875303,-2.4352197138139102e-05,5.671729483342739e-06,-4.071387957102778e-05,-4.734172043142766e-07,-2.4352197138139102e-05,5.671729483342739e-06,-4.071387957102778e-05,-4.734172043142766e-07,-7.503525423728814,61.53453389884139,-217.39,136.17,3.084542135595147,0.02275638094594093,3.0267454772356266,3.1024399836366863,0.04050308116182912,0.00970173630385238,0.023346156934666153,0.05470480789952895,0.03660636345680165,0.0931916980644016,2.8295554121982036e-08,0.39675080764179277,-0.1567047019015685,0.014146250292595497,-0.17828186024939402,-0.13252448309400858,-0.5493665747252054,2.39711645179874,-4.54559326171875,4.12139892578125,34.28157894736842,0.009874559494363151,34.27,34.29,0.05423728813559322,0.0015438596491224997,0,1,0
0,0.0373187125901509,0.005504038129074089,0.02476992688161029,0.06880535244891747,-0.037318694922842885,0.005504035523369594,-0.068805319875303,-0.02476991515510908,-2.567724741495053e-05,3.787069247904763e-06,-4.734172043142766e-05,-1.7043019355313955e-05,-2.567724741495053e-05,3.787069247904763e-06,-4.734172043142766e-05,-1.7043019355313955e-05,10.709693877551018,59.080576129186746,-126.8,173.31,3.073164002281806,0.02264706129782317,3.028055282698924,3.1092611112730557,0.055896156805944716,0.014542935252521991,0.034865399648345036,0.0763904591744702,0.043622814829171686,0.12173282038337804,2.227730599990707e-08,0.5115871512232942,-0.18655501689106485,0.002654190781519638,-0.18931646382521172,-0.18007736237226923,0.6635410318303641,2.345596771163694,-3.50341796875,3.77960205078125,34.29999999999999,0.010000000000001563,34.29,34.31,0.16326530612244897,-0.00030959752321986267,0,1,0
0,0.03391589005747321,0.00037823479609971883,0.033026569175480386,0.035090729748947905,-0.033915874001118694,0.0003782346170369853,-0.03509071313640453,-0.03302655354014544,-2.3335925594974492e-05,2.602455381314269e-07,-2.4144277420028106e-05,-2.2724025807085277e-05,-2.3335925594974492e-05,2.602455381314269e-07,-2.4144277420028106e-05,-2.2724025807085277e-05,-4.85572881355932,24.60759619651065,-58.92,36.63,3.0838326565883216,0.004348970391756094,3.0721289517485104,3.0888915814502758,0.047723490303935356,0.009251159957874584,0.032853861824510354,0.06803842329480439,0.020675231924164,0.03928530847313004,4.280826904068391e-07,0.11293436775138366,-0.16596925100210952,0.011847411052288242,-0.18350223933858337,-0.14533088885513923,-0.4806419164312093,1.6009361641917617,-3.04412841796875,2.49176025390625,34.297368421052624,0.00964752777885591,34.29,34.31,0.13559322033898305,-0.0009122807017545285,0,1,0
0,0.03395172222530031,0.00032698773546795535,0.03371462269996956,0.034402676224458736,-0.033951706151982224,0.000326987580666445,-0.0344026599376515,-0.03371460673889847,-2.3360580020994352e-05,2.24984850830063e-07,-2.367086021571383e-05,-2.3197443011399553e-05,-2.3360580020994352e-05,2.24984850830063e-07,-2.367086021571383e-05,-2.3197443011399553e-05,3.238983050847456,31.253326347436587,-65.56,44.28,3.0907523467085554,0.0023850941118765882,3.0858457028744826,3.094254725728866,0.014226147502314787,0.008111457561874766,0.004286958354742435,0.030481692030102495,1.436449448678613e-07,1.8262878369340636e-07,3.454819934300968e-08,7.566418620541526e-07,-0.12501064240804183,0.009909834212968604,-0.14289070778882706,-0.11104072201514949,0.4936329518790723,1.5053167477033615,-2.39105224609375,2.50701904296875,34.29,0.0,34.29,34.29,0.16271186440677965,0.0,0,1,0
0,0.030040323266472872,0.004231181232975511,0.007568588769380921,0.03853099737139378,-0.03004030904487719,0.004231179229862947,-0.03853097913016968,-0.00756858518628333,-2.0669330729857338e-05,2.91127640360458e-06,-2.651136344159949e-05,-5.2075892474570424e-06,-2.0669330729857338e-05,2.91127640360458e-06,-2.651136344159949e-05,-5.2075892474570424e-06,-0.9292203389830501,39.828160513644164,-86.2,85.16,3.094296172005133,0.0031825749147595143,3.0881660399567896,3.098995069391245,0.0017299166507725235,0.0008505090259785545,0.000844794461236572,0.0037848654052055706,0.00049033545413169,0.0020791397955477824,4.9137922619735264e-08,0.009311378419745574,-0.10622396359195756,0.0014992467955789242,-0.11005360572790486,-0.10493314179782467,0.8389906019490055,4.915501428793663,-5.25054931640625,10.53009033203125,34.31105263157895,0.012093816097974344,34.29,34.33,0.08135593220338982,0.0011929824561402133,0,1,0
0,0.028186791322951047,0.00012471941451822172,0.027522140979566984,0.028210194504056162,-0.028186777978848592,0.00012471935547394658,-0.02821018114887423,-0.027522127950121197,-1.9394002750888206e-05,8.581355148026469e-08,-1.941010537688534e-05,-1.8936688172571062e-05,-1.9394002750888206e-05,8.581355148026469e-08,-1.941010537688534e-05,-1.8936688172571062e-05,0.3870748299319744,34.46966019206318,-70.42,47.81,3.091814553306838,0.0022257400928565717,3.087694420981493,3.0962129344251474,0.0012779520562526956,0.00031244867903382537,0.0007329882370053797,0.0017119680726995748,0.001032596519369229,0.003360315508655723,1.2857355461554087e-07,0.014284303001772228,-0.10990574434084172,0.002423330107645423,-0.11388456105586428,-0.1061771223119968,-1.842900127098519,1.703208782738504,-4.79888916015625,1.31378173828125,34.30222222222223,0.009749960430437216,34.29,34.31,0.16326530612244897,0.0002683178534572143,0,1,0
0,0.02818694945255311,0.00012431213615010683,0.027522140979566984,0.028210194504056162,-0.028186936108375783,0.0001243120772986445,-0.02821018114887423,-0.027522127950121197,-1.9394111552415218e-05,8.553332242896638e-08,-1.941010537688534e-05,-1.8936688172571062e-05,-1.9394111552415218e-05,8.553332242896638e-08,-1.941010537688534e-05,-1.8936688172571062e-05,-2.3222033898305092,30.332704432607407,-71.18,43.77,3.0846338804698874,0.0040332967075339,3.0784268377748476,3.0904042047135607,0.0006404515373264057,0.0003277874815394742,0.0002443279303361062,0.0012944446868881528,0.0004948140158482046,0.0014629154464315302,3.701600444737385e-08,0.005736839280504178,-0.11714569814537697,0.0015815651909613134,-0.11950109724124097,-0.11430178733183421,0.25863103011436356,2.215551618316702,-3.47442626953125,3.76739501953125,34.309999999999995,0.013333333333333051,34.29,34.33,0.16271186440677965,-0.000660474716202491,0,1,0
0,0.028055733508762646,0.0002870875008437959,0.027522140979566984,0.028210194504056162,-0.028055720226705123,0.00028708736493172936,-0.02821018114887423,-0.027522127950121197,-1.930382804530456e-05,1.9753137976285513e-07,-1.941010537688534e-05,-1.8936688172571062e-05,-1.930382804530456e-05,1.9753137976285513e-07,-1.941010537688534e-05,-1.8936688172571062e-05,-1.0367796610169466,52.40805916937395,-150.1,66.39,3.0816585748423235,0.0022031314794586994,3.0778499191925444,3.0866819666940417,0.0005846113023558964,0.00024666543064408547,0.000207516797043051,0.0009313440438252016,2.440433576133995e-07,4.226585335291752e-07,7.221606145718651e-08,1.9931836767288214e-06,-0.12150398017732807,0.0010485622840639944,-0.12321076378990041,-0.11972435562930908,0.6936766669412996,2.031763724293988,-2.7557373046875,3.59649658203125,34.30578947368421,0.008153649149911627,34.29,34.31,0.13559322033898305,-0.0004912280701755154,0,1,0
0,0.027833624669707333,0.000342484104154506,0.027522140979566984,0.028210194504056162,-0.027833611492799858,0.00034248394201675354,-0.02821018114887423,-0.027522127950121197,-1.9151005420470113e-05,2.3564717182617516e-07,-1.941010537688534e-05,-1.8936688172571062e-05,-1.9151005420470113e-05,2.3564717182617516e-07,-1.941010537688534e-05,-1.8936688172571062e-05,4.036067796610169,42.167551250174384,-91.15,55.46,3.077129529721814,0.0019512457839601515,3.073644318586631,3.080582401532481,0.00012256186481659156,0.00013795152599243104,2.8447040242766632e-05,0.0006499700635300802,0.0008418616292198214,0.0034652390382719084,6.307758050431989e-08,0.01512939559863543,-0.12523222290459826,0.0011480133477653703,-0.12715598814475315,-0.1234068853588806,-0.08450471722410216,1.833458446593355,-2.49786376953125,3.41644287109375,34.309999999999995,7.105427357601002e-15,34.31,34.31,0.13559322033898305,0.0,0,1,0
0,0.027676601974860448,0.00028708750084379525,0.027522140979566984,0.028210194504056162,-0.02767658887229016,0.0002870873649317297,-0.02821018114887423,-0.027522127950121197,-1.904296550415183e-05,1.9753137976285483e-07,-1.941010537688534e-05,-1.8936688172571062e-05,-1.904296550415183e-05,1.9753137976285483e-07,-1.941010537688534e-05,-1.8936688172571062e-05,1.2247959183673465,43.52444591612039,-90.87,60.68,3.0756333080023612,0.002972345077156481,3.0707181789129723,3.0815570938968,0.001663461536409883,0.0006049153298313149,0.0007153926774339703,0.0025414886408033454,0.0007274027316302762,0.0030453671580304765,1.0878174561829157e-07,0.013646817479131351,-0.12949722830211163,0.0012706179293101307,-0.13155267131238965,-0.12739119129828919,0.18574133584665697,1.4898383999513956,-2.03094482421875,3.08685302734375,34.318421052631585,0.009874559494363151,34.31,34.33,0.13605442176870747,0.0012631578947365908,0,1,0
0,0.027812340425269866,0.0003397896895646158,0.027522140979566984,0.028210194504056162,-0.027812327258438733,0.0003397895287024446,-0.02821018114887423,-0.027522127950121197,-1.913636073493489e-05,2.3379327212650126e-07,-1.941010537688534e-05,-1.8936688172571062e-05,-1.913636073493489e-05,2.3379327212650126e-07,-1.941010537688534e-05,-1.8936688172571062e-05,-4.397288135593225,37.94822068272469,-86.73,44.62,3.070357112116947,0.003510328782970254,3.0620490596734715,3.0735272493327384,0.0002694500728156523,0.00016700251177186412,7.636639198758076e-05,0.000633223080994341,8.022638307357141e-08,4.981869842116749e-08,4.521705000226986e-08,2.337058358971994e-07,-0.13345852662882962,0.0009962041249591805,-0.13504155376322569,-0.1317690257232328,0.38502001074430847,2.1936503113070387,-3.48358154296875,3.43780517578125,34.30222222222221,0.009749960430437216,34.29,34.31,0.16271186440677965,-0.0002683178534572143,0,1,0
0,0.02774064446369527,0.00032030972478437305,0.027522140979566984,0.028210194504056162,-0.02774063133080621,0.0003203095731443461,-0.02821018114887423,-0.027522127950121197,-1.9087030122589795e-05,2.2039002639318477e-07,-1.941010537688534e-05,-1.8936688172571062e-05,-1.9087030122589795e-05,2.2039002639318477e-07,-1.941010537688534e-05,-1.8936688172571062e-05,1.6131864406779672,38.09835874416558,-85.41,43.88,3.0685227954633536,0.0022394743269887035,3.063269727133516,3.0717019531087053,0.0010845693784099022,0.0006675954991937897,4.635985894744598e-05,0.001907500603048144,0.001081714593933555,0.0045878620962885525,1.1701627703809316e-07,0.02054636496139567,-0.13678117752624988,0.0009551710336142563,-0.1383685482677732,-0.1352171326841129,-0.4267117521603113,1.7615778516154323,-2.93121337890625,2.79083251953125,34.31105263157895,0.007877173445839308,34.29,34.33,0.13559322033898305,0.0009122807017543166,0,1,0
0,0.027709366428407572,0.0003062152204827129,0.027522140979566984,0.028210194504056162,-0.027709353310326004,0.00030621507551526254,-0.02821018114887423,-0.027522127950121197,-1.906550918054776e-05,2.1069226221467673e-07,-1.941010537688534e-05,-1.8936688172571062e-05,-1.906550918054776e-05,2.1069226221467673e-07,-1.941010537688534e-05,-1.8936688172571062e-05,1.3904745762711863,42.615991322330494,-93.55,53.29,3.0659466089638205,0.0017342946076926984,3.062513120670784,3.0689187807373863,0.0008613750610545226,0.000393168293694156,0.00032966976686314703,0.0014168010162296488,0.0008086666914856317,0.002585681911698831,1.2016818206478375e-07,0.01090828945539779,-0.14025410934755503,0.0010779376922024344,-0.14208700096949473,-0.1385528172296083,-0.09263595216510238,1.7350463213434113,-2.46429443359375,3.05023193359375,34.321111111111115,0.016629588385661608,34.29,34.33,0.13559322033898305,-0.0009907120743033846,0,1,0
0,0.02776553406305972,0.00032897914195488233,0.027522140979566984,0.028210194504056162,-0.027765520918387514,0.000328978986210607,-0.02821018114887423,-0.027522127950121197,-1.9104155482940717e-05,2.263550437847373e-07,-1.941010537688534e-05,-1.8936688172571062e-05,-1.9104155482940717e-05,2.263550437847373e-07,-1.941010537688534e-05,-1.8936688172571062e-05,-1.9688775510204064,46.50888018964993,-95.93,56.87,3.061200748708336,0.0028206648855907315,3.0561052869151424,3.064622424665974,0.0004994448067485321,0.00029083588420074347,0.00014828468387584445,0.0010960173949859633,5.705454537055317e-08,1.6330971637785872e-08,3.964945758695715e-08,1.0397524799130031e-07,-0.14450315065496913,0.0013795518401898631,-0.14684252495685404,-0.1423222568214929,0.5581110346110228,1.9309141186361916,-2.93121337890625,3.21197509765625,34.30777777777777,0.0062853936105480715,34.29,34.31,0.13605442176870747,-0.0006604747162023736,0,1,0
0,0.029423586192513427,0.0011208165097194255,0.026834087455077812,0.03096240860201286,-0.029423572262891395,0.0011208159791059784,-0.03096239394388635,-0.02683407475136817,-2.0244983014223378e-05,7.711810196373812e-07,-2.1303774194142445e-05,-1.8463270968256787e-05,-2.0244983014223378e-05,7.711810196373812e-07,-2.1303774194142445e-05,-1.8463270968256787e-05,1.0523728813559317,34.45718013482836,-80.74,48.1,3.0568081100965285,0.0016019941116358568,3.053604358475889,3.0593351978966057,0.0008185559776617284,0.0007391742945095224,5.493163214426559e-05,0.001961592039648175,0.0013284491798155665,0.003909013120336071,7.516310820444849e-08,0.01453236904146668,-0.15005210134763658,0.0018295330046153263,-0.15313672854022475,-0.14714070687719105,-0.7536961482121394,2.3128847406745416,-5.65948486328125,2.90374755859375,34.32578947368422,0.015998614898496095,34.29,34.34,0.16271186440677965,0.0007368421052632357,0,1,0
0,0.02957694028059249,0.0005322770448419757,0.028210194504056162,0.03096240860201286,-0.029576926278370035,0.0005322767928530441,-0.03096239394388635,-0.02821018114887423,-2.035049873511504e-05,3.662347499445413e-07,-2.1303774194142445e-05,-1.941010537688534e-05,-2.035049873511504e-05,3.662347499445413e-07,-2.1303774194142445e-05,-1.941010537688534e-05,-0.5643389830508477,35.767245220519186,-73.78,55.34,3.0528436007690516,0.0024805501000349094,3.0488044902535134,3.057079210728792,0.0021756290749733406,0.0010112063542502016,0.0010560232336036504,0.004002145807689988,0.0024268339262661265,0.007225299342337763,8.38039094161469e-08,0.028625620403265384,-0.15639271776575084,0.0017182054374584098,-0.15908641359412656,-0.15349270952240374,1.4640748926175147,2.2921556524473314,-2.8167724609375,4.73175048828125,34.31,0.01763834207376356,34.29,34.33,0.16271186440677965,0.003178534571723359,0,1,0
0,0.029200433698084432,0.000432407944424547,0.028210194504056162,0.03096240860201286,-0.02920041987410666,0.0004324077397153332,-0.03096239394388635,-0.02821018114887423,-2.0091442299310676e-05,2.975195284767023e-07,-2.1303774194142445e-05,-1.941010537688534e-05,-2.0091442299310676e-05,2.975195284767023e-07,-2.1303774194142445e-05,-1.941010537688534e-05,1.4127796610169499,32.16534790473759,-72.28,42.19,3.0489484917762177,0.0017341238953149062,3.045917967256666,3.051947549067772,0.001705144019864044,0.0009977624722259204,0.00048178919610897627,0.003671478146100358,7.236984014032184e-07,1.444620807654849e-06,4.534195042690814e-08,6.011215363324607e-06,-0.16115230990153404,0.0009118468013999007,-0.16228473937034057,-0.15936047641153755,-0.6198551755389268,2.682615522269105,-4.71038818359375,3.96881103515625,34.31736842105263,0.009647527778852482,34.31,34.33,0.16271186440677965,0.0004912280701753408,0,1,0
0,0.02889824802854523,1.0408340855860843e-16,0.028898248028545334,0.028898248028545334,-0.02889823434762731,5.204170427930421e-17,-0.02889823434762726,-0.02889823434762726,-1.9883522581199687e-05,7.115076756936123e-20,-1.9883522581199616e-05,-1.9883522581199616e-05,-1.9883522581199687e-05,7.115076756936123e-20,-1.9883522581199616e-05,-1.9883522581199616e-05,-0.1809523809523817,33.41872956124348,-71.53,70.25,3.04438011807353,0.0012813868361123758,3.0413620309188056,3.0467667726683247,0.00018003824033174733,0.00011213727572569857,5.0857301906848565e-05,0.00042537616518580144,6.828954526181889e-08,2.176075234376188e-08,4.405242377304719e-08,1.0114844253296916e-07,-0.1628549475902332,0.0004375135723563234,-0.1638285056419863,-0.1623332737354113,-0.16419337346003607,1.8922997793729164,-3.118896484375,3.09295654296875,34.31666666666668,0.009428090415818758,34.31,34.33,0.16326530612244897,0.0004953560371516042,0,1,0
0,0.028781232123019872,0.00030427735712975387,0.027522140979566984,0.028898248028545334,-0.02878121849749922,0.00030427721307972085,-0.02889823434762726,-0.027522127950121197,-1.9803009451214246e-05,2.0935890976715901e-07,-1.9883522581199616e-05,-1.8936688172571062e-05,-1.9803009451214246e-05,2.0935890976715901e-07,-1.9883522581199616e-05,-1.8936688172571062e-05,-1.571898305084747,36.586189787624754,-78.76,46.23,3.040719260234577,0.0030953271546058482,3.0346666558153093,3.04536903892404,4.420394161197834e-05,0.00010104145260934052,6.2627941027275975e-06,0.00045818583374008576,0.002170159559659904,0.00894650580808384,7.610479524041477e-08,0.03905754790009029,-0.16781317056266562,0.0028776542780114254,-0.17346169580531737,-0.164056464614662,0.18917915801102428,2.064351417029868,-3.692626953125,3.34320068359375,34.33000000000001,0.011547005383792951,34.31,34.34,0.16271186440677965,-0.000990712074303795,0,1,0
0,0.028210194504056124,3.8163916471489756e-17,0.028210194504056162,0.028210194504056162,-0.0282101811488742,3.122502256758253e-17,-0.02821018114887423,-0.02821018114887423,-1.941010537688529e-05,5.082197683525802e-20,-1.941010537688534e-05,-1.941010537688534e-05,-1.941010537688529e-05,5.082197683525802e-20,-1.941010537688534e-05,-1.941010537688534e-05,1.9322033898305078,33.95753996139618,-69.85,50.78,3.0333026552815165,0.003802434786325895,3.024202002104022,3.038056815095897,0.007382149946224191,0.004108272219919602,0.0016249372838683693,0.014774919482115161,0.009779345222442627,0.01914125744046614,1.8756380364137737e-07,0.06805500030332229,-0.1848784388476831,0.006583257360451122,-0.195714114008675,-0.17443475552319124,-0.14414207515290595,2.330291525268738,-4.05426025390625,3.80859375,34.31210526315789,0.006137844099835938,34.31,34.33,0.16271186440677965,-0.0005964912280700568,0,1,0
0,0.02820083323161409,7.970836264601096e-05,0.027522140979566984,0.028210194504056162,-0.028200819880863957,7.970832491072753e-05,-0.02821018114887423,-0.027522127950121197,-1.9403664326486458e-05,5.484356792207183e-08,-1.941010537688534e-05,-1.8936688172571062e-05,-1.9403664326486458e-05,5.484356792207183e-08,-1.941010537688534e-05,-1.8936688172571062e-05,-4.884455782312926,39.01232536194175,-86.88,44.19,3.0284411506922986,0.002433572247575154,3.023877765676549,3.0325186983829666,0.02042963985519744,0.003979877967083719,0.013127066745487548,0.025540531724729292,0.01970465580808746,0.03627147858483051,5.3360003682279e-07,0.12853046770164916,-0.20351990524226812,0.003292193234982022,-0.20701578502454376,-0.19683320990093123,0.14413592241538073,2.0729596349319572,-3.6102294921875,3.12042236328125,34.32222222222222,0.009749960430433753,34.31,34.33,0.13605442176870747,0.001589267285861397,0,1,0
0,0.02948800819239321,0.005540584379540464,0.023393819832631935,0.0516040143366881,-0.029487994232272687,0.005540581756534359,-0.05160398990647725,-0.02339380875760302,-2.028930875632614e-05,3.8122150005361485e-06,-3.550629032357074e-05,-1.6096184946685404e-05,-2.028930875632614e-05,3.8122150005361485e-06,-3.550629032357074e-05,-1.6096184946685404e-05,13.489627118644066,48.24170985455913,-89.08,112.51,3.0188665220887847,0.012120398208245804,2.984198498463736,3.0278274291448217,0.011544972798621845,0.006337056451704527,0.0034111342299237087,0.022879876978676567,7.683009602790342e-08,1.1148132420701751e-07,1.9271290091493753e-08,4.962800141949941e-07,-0.20703149504102436,0.00412375298610361,-0.21891875165957378,-0.2036102537071301,-0.6341598169975186,2.2179147784480566,-4.36553955078125,3.033447265625,34.31315789473684,0.014886458551295103,34.29,34.33,0.13559322033898305,-0.0008421052631580014,0,1,0
0,0.03390523212229424,0.009875367887984626,0.021329659259164413,0.05022790728770975,-0.0339052160709855,0.009875363212818887,-0.050227883508971186,-0.02132964916134393,-2.332859237205418e-05,6.794775247428039e-06,-3.455945591494219e-05,-1.4675933333742575e-05,-2.332859237205418e-05,6.794775247428039e-06,-3.455945591494219e-05,-1.4675933333742575e-05,-13.124000000000022,68.61610688213824,-154.21,134.16,2.970124056515909,0.012928830989056391,2.937701670589001,2.9866764893968183,0.05609123290794254,0.05124881331023372,0.00234840672136134,0.17553853877015732,0.13667252516325576,0.2466511165134029,3.4502838565375615e-08,0.9453504310351599,-0.30367117068174937,0.06366474086768828,-0.43072825915210927,-0.22312590734400153,1.2558887658043747,2.304504937813602,-3.87420654296875,4.78973388671875,34.316666666666656,0.009428090415818758,34.31,34.33,0.13559322033898305,-0.00016511867905053473,0,1,0
0,0.04408691256573823,0.0002672475233058872,0.043347372042818,0.04472347909179635,-0.04408689169425036,0.00026724739678640123,-0.04472345791894695,-0.04334735152144089,-3.033412685330724e-05,1.8388042621730324e-07,-3.0772118280427976e-05,-2.9825283871799426e-05,-3.033412685330724e-05,1.8388042621730324e-07,-3.0772118280427976e-05,-2.9825283871799426e-05,5.156406779661022,35.45504465032533,-64.67,79.29,2.9482692941221798,0.0060114211597475705,2.9356625555786993,2.959648867915098,0.46517694765323686,0.1892474728058924,0.19044064946632636,0.7995800338409499,0.6677685954662741,0.4821441100963856,9.617231212288857e-05,1.5373130677899756,-0.742062584712924,0.19603253014965008,-1.0892041538234443,-0.45340334540389765,-0.19213532099948627,1.7513553590551387,-2.84271240234375,2.716064453125,34.32052631578946,0.012762479634717784,34.31,34.34,0.16271186440677965,-0.0006666666666667085,0,1,0
