,net_acc_mean,net_acc_std,net_acc_min,net_acc_max,ACC_x_mean,ACC_x_std,ACC_x_min,ACC_x_max,ACC_y_mean,ACC_y_std,ACC_y_min,ACC_y_max,ACC_z_mean,ACC_z_std,ACC_z_min,ACC_z_max,BVP_mean,BVP_std,BVP_min,BVP_max,EDA_mean,EDA_std,EDA_min,EDA_max,EDA_phasic_mean,EDA_phasic_std,EDA_phasic_min,EDA_phasic_max,EDA_smna_mean,EDA_smna_std,EDA_smna_min,EDA_smna_max,EDA_tonic_mean,EDA_tonic_std,EDA_tonic_min,EDA_tonic_max,Resp_mean,Resp_std,Resp_min,Resp_max,TEMP_mean,TEMP_std,TEMP_min,TEMP_max,BVP_peak_freq,TEMP_slope,0,1,2
0,0.02433291991335364,0.009602199622452423,0.0027522140979566985,0.05091596081219893,0.023998179810561775,0.010410569003051293,-0.00963274478254242,0.05091593670772422,1.6512024382907396e-05,7.1630253033885855e-06,-6.627840860399872e-06,3.5032873119256466e-05,1.6512024382907396e-05,7.1630253033885855e-06,-6.627840860399872e-06,3.5032873119256466e-05,5.664813559322038,165.7199585206437,-589.62,309.97,9.022492987753395,0.09953709797882951,8.822045019639894,9.154045853481007,0.17592211181171186,0.038164634220804364,0.1254138546652615,0.2679714244119432,0.08660284305973598,0.20203320393028731,9.359246622153705e-08,0.6075324185497792,0.38368485729745433,0.04544788054345866,0.29975374504306174,0.44683181997338506,0.49215037532834793,3.5896080359669726,-5.53436279296875,7.11212158203125,34.79421052631579,0.008153649149911627,34.79,34.81,0.13559322033898305,0.000350877192982511,0,1,0
0,0.020571396191360013,0.00968201566885969,0.0013761070489783493,0.05298012138566645,0.02057138645251404,0.009682011085230154,0.00137610639750606,0.05298009630398331,1.415420825143705e-05,6.661738697554918e-06,9.468344086285532e-07,3.64531247321993e-05,1.415420825143705e-05,6.661738697554918e-06,9.468344086285532e-07,3.64531247321993e-05,-7.519932203389831,130.80902304697437,-372.12,318.38,8.988885022886025,0.08833943553686567,8.796464669366054,9.089257289839038,0.08660246502623906,0.021898155130751537,0.0534025824375776,0.129451194784596,0.029495468121428177,0.06348252418499647,7.85568303740547e-08,0.20440579498749978,0.46431684363582526,0.00535632624082316,0.45095080946318955,0.4697815909686298,3.9129992800767917,5.987987936181228,-5.92193603515625,14.76593017578125,34.79444444444445,0.00831479419283228,34.79,34.81,0.10847457627118644,-0.0006604747162023736,0,1,0
0,0.025095357602652472,0.010011006541495625,0.003440267622445873,0.044035425567307176,0.02509534572208686,0.010011001802116254,0.0034402659937651497,0.04403540472019392,1.7266932897895016e-05,6.888101812668438e-06,2.3670860215713828e-06,3.02987010761137e-05,1.7266932897895016e-05,6.888101812668438e-06,2.3670860215713828e-06,3.02987010761137e-05,8.10328813559322,40.79553420684748,-140.93,116.11,8.778940980787187,0.025618460756192327,8.738140043066577,8.83458848424317,0.07243174572758151,0.027887967803597407,0.03734378254467826,0.12277930164617755,0.09470998273707162,0.1732698618879055,1.0740791207553002e-06,0.5155083041916904,0.4168641496866765,0.02932009731437221,0.36270986307853925,0.4576044091361483,-6.443681045233963,5.351957699366693,-15.106201171875,3.49884033203125,34.79,0.01333333333333305,34.77,34.81,0.08135593220338982,0.00132094943240463,0,1,0
0,0.027597031159103214,0.011983227698390567,0.004816374671424223,0.07775004826727673,0.027597018094203157,0.011983222025328437,0.00481637239127121,0.07775001145909238,1.898821657576173e-05,8.245094245894993e-06,3.313920430199936e-06,5.3496144087513247e-05,1.898821657576173e-05,8.245094245894993e-06,3.313920430199936e-06,5.3496144087513247e-05,-35.83187074829931,199.82552468392967,-756.5,526.02,8.652039215391966,0.20521363655179398,8.156591674019293,8.850744367260646,0.17782502685856805,0.02737514795832531,0.12717314098085583,0.21994974947535886,0.23920955849802866,0.39365676536209016,8.501893944412586e-08,1.5538744916852378,0.2753118353466119,0.049587610396081575,0.19298230541301165,0.35472909561164767,1.5482206122819768,7.8713182991231125,-11.73553466796875,11.0504150390625,34.785789473684204,0.00815364914990873,34.77,34.79,0.10884353741496598,7.017543859647726e-05,0,1,0
0,0.03584899281675223,0.00707381502987615,0.01788939163671854,0.08463058351216848,0.03584897584523443,0.007073811681012799,0.01788938316757878,0.08463054344662269,2.4666002502333604e-05,4.867158754497406e-06,1.230884731217119e-05,5.823031613065602e-05,2.4666002502333604e-05,4.867158754497406e-06,1.230884731217119e-05,5.823031613065602e-05,41.0353220338983,124.83777459532531,-190.7,465.3,8.824725691459774,0.1318989373446475,8.547846912917613,8.981146829506578,0.38693238548186243,0.07323486481019087,0.22282974266494207,0.44725611534566584,0.34654975609374766,0.34884931867683294,8.675187865847533e-07,1.0041220718191717,0.11479092045409067,0.039633050449172785,0.055271450767759966,0.18391657473626288,1.1385556373986774,4.892603216440968,-3.45916748046875,11.16180419921875,34.78555555555555,0.008314794192829326,34.77,34.79,0.05423728813559322,-0.00016511867905053473,0,1,0
0,0.025430086344295853,0.018001311273464025,0.0006880535244891746,0.07430978064483086,0.025402180256665918,0.018040643506385467,-0.00137610639750606,0.07430974546532723,1.7478051380900044e-05,1.2412922472131602e-05,-9.468344086285532e-07,5.1129058065941864e-05,1.7478051380900044e-05,1.2412922472131602e-05,-9.468344086285532e-07,5.1129058065941864e-05,-26.884677966101695,171.5900399755027,-465.69,496.81,8.554196880729146,0.3627389043522332,7.885669324693884,8.997900582634884,0.40787860704504225,0.07921740604560336,0.26208550143084897,0.5186366386297805,0.28650641314822267,0.5247185518415429,3.958430827566417e-08,1.8962003969174104,0.018338975963057325,0.015516168377998149,5.028162635545286e-05,0.04994066773645711,0.716615492297757,5.599553041855627,-10.2142333984375,8.10394287109375,34.788947368421056,0.0044659375653878335,34.77,34.79,0.05423728813559322,-0.0003157894736841477,0,1,0
0,0.042490815614372145,0.00038981579404455424,0.04059515794486131,0.043347372042818,0.04249079549850346,0.00038981560949918426,0.04059513872642877,0.04334735152144089,2.923592776030616e-05,2.6821387703977563e-07,2.7931615054542318e-05,2.9825283871799426e-05,2.923592776030616e-05,2.6821387703977563e-07,2.7931615054542318e-05,2.9825283871799426e-05,23.11935593220341,178.0178686287154,-596.77,304.74,8.18599820398071,0.043696793631520396,8.137136026671305,8.307644714284837,0.30721192151390686,0.015577453924194117,0.2792828088196695,0.33253084003485067,0.17926209388869793,0.28018374935720036,2.1869404154273298e-07,0.8145303186234161,0.00869251694138924,0.008904477889478981,-0.00045577472440461175,0.027441412203789484,-1.8090731306842422,4.33769334685839,-10.10894775390625,2.35137939453125,34.78222222222222,0.009749960430433751,34.77,34.79,0.10847457627118644,0.00026831785345711895,0,1,0
0,0.04265463788210766,9.818185367331993e-05,0.04197126499383966,0.043347372042818,0.042654617688682755,9.818180719237438e-05,0.04197124512393483,0.04334735152144089,2.9348646142285748e-05,6.755430649806671e-08,2.8878449463170872e-05,2.9825283871799426e-05,2.9348646142285748e-05,6.755430649806671e-08,2.8878449463170872e-05,2.9825283871799426e-05,-1.9131632653061221,38.74113706666651,-85.38,64.46,8.13530080082958,0.018553613236928324,8.105612133255718,8.161387190741486,0.23322148306496596,0.030143001322850506,0.1816592343103191,0.277708465492396,0.12408543150030454,0.06323675811779045,0.03970887676048385,0.23288468300727327,0.06876895494581639,0.02486570005447591,0.030935987559643552,0.11171400157145384,0.8651955843563411,3.2216935781861484,-3.06549072265625,6.21185302734375,34.79888888888888,0.009938079900000616,34.79,34.81,0.19047619047619047,0.0,0,1,0
0,0.042733702683138364,0.0002786305116389617,0.04197126499383966,0.044035425567307176,0.042733682452282824,0.00027863037973057715,0.04197124512393483,0.04403540472019392,2.940304690578942e-05,1.9171252404339504e-07,2.8878449463170872e-05,3.02987010761137e-05,2.940304690578942e-05,1.9171252404339504e-07,2.8878449463170872e-05,3.02987010761137e-05,-3.4452203389830514,57.591342527362514,-138.11,89.8,8.069290247553631,0.0187073987780058,8.033733024061153,8.098522763240696,0.11580153447710236,0.03548286816333466,0.05609396055056562,0.1740634756425626,0.03750807001601491,0.05351828946024815,1.703818937048851e-07,0.15745792015152515,0.166713391224363,0.029637449909115463,0.11723837309591889,0.21392224983527763,0.08292801622717315,2.419211557305755,-3.07769775390625,5.22613525390625,34.790000000000006,0.012977713690460727,34.77,34.81,0.13559322033898305,-0.0016842105263156785,0,1,0
0,0.040244110228285154,0.007760971937197395,0.006880535244891746,0.053668174910155624,0.040244091176044584,0.007760968263022365,0.006880531987530299,0.05366814950273634,2.7690075664586055e-05,5.339959038793287e-06,4.7341720431427655e-06,3.6926541936513574e-05,2.7690075664586055e-05,5.339959038793287e-06,4.7341720431427655e-06,3.6926541936513574e-05,2.6679999999999993,60.19856837984646,-192.63,80.78,8.07071991930821,0.08624732734611704,7.9974658957679186,8.225913133393844,0.032470270138023456,0.011137500764396695,0.014880810763596135,0.05006885005844319,0.022497830000856447,0.09275943168270617,9.530166622528924e-08,0.40495476459211566,0.2509384463424553,0.01790889982225572,0.21860236585321224,0.2771543176688709,0.2829731305933428,3.1869052201500523,-4.38690185546875,6.64215087890625,34.79888888888888,0.009938079900000616,34.79,34.81,0.10847457627118644,-0.0003302373581011868,0,1,0
0,0.021706229093513208,0.00424848070918825,0.0,0.031650462126502035,0.02164113270402269,0.004568466031712521,-0.00481637239127121,0.03165044714263938,1.489025058164161e-05,3.14334766651436e-06,-3.313920430199936e-06,2.177719139845672e-05,1.489025058164161e-05,3.14334766651436e-06,-3.313920430199936e-06,2.177719139845672e-05,1.8043728813559348,57.856429912619426,-184.83,172.64,8.198463910685641,0.032838637391752676,8.117654006511328,8.244554866672322,0.02866709924257653,0.004948020096056738,0.020726562224317492,0.039451057080820175,0.01571804456130791,0.03623103030058143,3.4320730180059655e-07,0.13849194948146526,0.2932341220656621,0.006893424165838875,0.27943140376011566,0.3017667712317086,-2.8629695807142235,5.181871221993693,-13.29193115234375,5.64727783203125,34.79421052631579,0.008153649149911627,34.79,34.81,0.16271186440677965,0.0009122807017545285,0,1,0
0,0.02807445605364671,0.012683434266571161,0.0006880535244891746,0.06330092425300407,0.028074442762725665,0.012683428262019427,0.00068805319875303,0.06330089428527876,1.931671014610225e-05,8.726873386837054e-06,4.734172043142766e-07,4.355438279691344e-05,1.931671014610225e-05,8.726873386837054e-06,4.734172043142766e-07,4.355438279691344e-05,5.616360544217694,101.43769761434149,-204.95,292.5,8.196083148487379,0.02214518714748348,8.154634273393404,8.23268225299135,0.020155210745216992,0.005684017049521059,0.012581153816333878,0.02829821027281178,0.016928526077851284,0.03778031418521248,2.9148288338554096e-07,0.14661759439305821,0.3003021421414909,0.0024410892119735273,0.29471665206711506,0.3025119251722861,4.578092494614367,4.421987543909553,-2.10418701171875,12.32452392578125,34.79,0.0,34.79,34.79,0.16326530612244897,0.0,0,1,0
0,0.018825518880921495,0.008167993184792428,0.0013761070489783493,0.04747569318975305,0.018825509968603295,0.00816798931792668,0.00137610639750606,0.04747567071395907,1.2952952352054567e-05,5.620011177580031e-06,9.468344086285532e-07,3.2665787097685084e-05,1.2952952352054567e-05,5.620011177580031e-06,9.468344086285532e-07,3.2665787097685084e-05,-8.278372881355926,75.35755397041052,-240.53,101.53,8.143515859378242,0.060700195781139436,8.056070859620762,8.211618286534739,0.02870770721049458,0.0051436207694419665,0.02203574930103714,0.03794418134959629,0.02133012677945374,0.05362736050516489,1.6428235471988017e-07,0.2135728866153387,0.2762313216902163,0.012278752653066221,0.2533099815540609,0.29349079348806795,-3.1113257774939904,2.6510108315300376,-6.39801025390625,5.54046630859375,34.78157894736842,0.009874559494363151,34.77,34.79,0.05423728813559322,0.00014035087719295453,0,1,0
0,0.013249679356717208,0.004849548416759265,0.0,0.03577878327343708,0.013193884986899315,0.00499933329221268,-0.00412831919251818,0.03577876633515756,9.078094769215662e-06,3.4398072633394496e-06,-2.8405032258856597e-06,2.461769462434238e-05,9.078094769215662e-06,3.4398072633394496e-06,-2.8405032258856597e-06,2.461769462434238e-05,-1.106305084745759,105.13015303354256,-392.71,241.86,8.099649421746484,0.11692794587374197,7.818781120906446,8.222439712443462,0.07729694401815011,0.04915812803163767,0.015191124614161227,0.13797492560654664,0.1185034114383316,0.2156211588205582,8.153216396467045e-08,0.8526267726645427,0.21480334083704966,0.023171978994307927,0.17469583580326697,0.24997479947643042,3.4488740708566845,5.328912135707923,-6.8756103515625,13.02337646484375,34.78111111111111,0.00993807989999709,34.77,34.79,0.10847457627118644,0.0009907120743032085,0,1,0
0,0.023726145004323997,0.013364609053130866,0.0027522140979566985,0.04678763966526387,0.02372613377196672,0.013364602726099496,0.00275221279501212,0.04678761751520604,1.6324842235844003e-05,9.195557655756226e-06,1.8936688172571063e-06,3.219236989337081e-05,1.6324842235844003e-05,9.195557655756226e-06,1.8936688172571063e-06,3.219236989337081e-05,-5.624319727891155,37.941040870808465,-96.15,121.62,8.20097968732491,0.08086037676380498,7.953781542500497,8.295849911286346,0.18847916908020304,0.027361387567540595,0.14418044757930892,0.224753947240997,0.1283134257251236,0.2066398408808318,5.741014863502869e-08,0.7519477764307632,0.1300903850636535,0.02257044485714964,0.09686406161752115,0.1695972496178847,-1.7633627425352338,3.492070103562074,-6.58111572265625,6.70013427734375,34.763333333333335,0.009428090415822106,34.75,34.77,0.05442176870748299,-0.0008255933952529671,0,1,0
0,0.01384064130554075,0.011484915542773474,0.0,0.05091596081219893,0.01346618403273787,0.011921753985914343,-0.01169690437880151,0.05091593670772422,9.26545099872227e-06,8.202800964755045e-06,-8.048092473342702e-06,3.5032873119256466e-05,9.26545099872227e-06,8.202800964755045e-06,-8.048092473342702e-06,3.5032873119256466e-05,6.638745762711869,105.02769570549736,-169.18,311.18,8.06027732598725,0.1845610194220556,7.690370303884687,8.214504095684182,0.1925392855993903,0.046324065486048414,0.10261325313384707,0.23150768405413924,0.17914202611569147,0.3690144523525751,9.442886517163629e-08,1.592241251467311,0.09133493818034594,0.006779744552934219,0.08472554447403458,0.1085129635196459,-0.22540411937325527,2.775266827895287,-3.28826904296875,6.05010986328125,34.77210526315789,0.017038330585513888,34.75,34.79,0.13559322033898305,0.002070175438596366,0,1,0
0,0.014862885931026252,0.0015085948883388608,0.011008856391826794,0.024081873357121114,0.0148628788946854,0.0015085941741445929,0.01100885118004848,0.02408186195635605,1.0226451366167204e-05,1.037993047140372e-06,7.574675269028425e-06,1.656960215099968e-05,1.0226451366167204e-05,1.037993047140372e-06,7.574675269028425e-06,1.656960215099968e-05,-6.065762711864402,180.53413821686584,-317.88,467.79,8.167863377261963,0.02841255685681719,8.128478233126387,8.214957758801848,0.1502686503110991,0.03819961879421184,0.08717258116315033,0.19970273053258528,0.06085686840395995,0.10664040108401772,1.006252648538819e-06,0.37294700607074516,0.16120490829591977,0.031088694832056042,0.11297504661577962,0.2131201853924547,-0.10145082630580012,2.2946101494365294,-3.12347412109375,5.01556396484375,34.7611111111111,0.00993807990000062,34.75,34.77,0.10847457627118644,0.0,0,1,0
0,0.013002807421979077,0.003958456972931773,0.0,0.026146033930588636,0.013002801266230737,0.003958455098931471,0.0,0.02614602155261514,8.946619003980022e-06,2.7236276929400415e-06,0.0,1.7989853763942512e-05,8.946619003980022e-06,2.7236276929400415e-06,0.0,1.7989853763942512e-05,11.318847457627125,27.727668724740173,-42.01,65.71,8.095287303509435,0.01431075729808522,8.072831868319936,8.12554308472954,0.034094949528462634,0.02108639805037219,0.0103374231698897,0.07907823597857438,0.0008914300966825714,0.003770181858453973,1.800663851359019e-07,0.016886908063504596,0.2570837122469923,0.018679103289814616,0.21904559519803957,0.27674736121818155,-0.005538883635187267,1.6708292171611827,-2.06146240234375,3.76129150390625,34.763684210526314,0.027570107060441364,34.73,34.81,0.16271186440677965,-0.003614035087719539,0,1,0
0,0.021811764789928936,0.00968722999265492,0.004128321146935048,0.04197126499383966,0.021811754463871545,0.009687225406556836,0.00412831919251818,0.04197124512393483,1.5007647429282519e-05,6.665326428023054e-06,2.8405032258856597e-06,2.8878449463170872e-05,1.5007647429282519e-05,6.665326428023054e-06,2.8405032258856597e-06,2.8878449463170872e-05,1.1367687074829913,149.80155675728366,-268.84,536.76,8.048381558828716,0.03209304257784362,7.960840241417283,8.093534569440713,0.026660405783986534,0.014806130547452065,0.006319572045367225,0.045102657750087656,0.030617301080277135,0.0767485026140739,1.1726999460393017e-07,0.2885967758661767,0.24974470597874868,0.019801614336118226,0.21282963230131047,0.2754984375658832,0.022013075002665555,1.8959871477075145,-2.35137939453125,4.13970947265625,34.74999999999999,0.013333333333335418,34.73,34.77,0.08163265306122448,0.0019814241486071213,0,1,0
0,0.023049793070387275,0.009411539860614195,0.010320802867337619,0.06467703130198241,0.023049782158226555,0.009411535405032478,0.010320797981295449,0.06467700068278481,1.5859476344528243e-05,6.4756370406099975e-06,7.101258064714148e-06,4.4501217205542e-05,1.5859476344528243e-05,6.4756370406099975e-06,7.101258064714148e-06,4.4501217205542e-05,-8.334440677966091,85.43105941134516,-347.19,162.43,7.949344364820593,0.11681733260462286,7.6418795447343175,8.12332334429788,0.0864636211233306,0.04590112348231523,0.02188979542803994,0.1339876476674725,0.11774582948264135,0.2736927456881458,7.616743502580903e-08,1.1600789606331439,0.1631703163829669,0.02521553180825204,0.1267523065335826,0.20754707511143256,0.8355024730597181,2.9120489634516438,-3.00445556640625,6.549072265625,34.73631578947369,0.019523407358939357,34.71,34.77,0.05423728813559322,0.002245614035087696,0,1,0
0,0.018474471164345335,0.0002454546341833011,0.01788939163671854,0.018577445161207715,0.018474462418219168,0.0002454545179809365,0.01788938316757878,0.018577436366331808,1.2711412962098334e-05,1.6888576624516621e-07,1.230884731217119e-05,1.2782264516485466e-05,1.2711412962098334e-05,1.6888576624516621e-07,1.230884731217119e-05,1.2782264516485466e-05,2.3011525423728805,25.08142887883085,-58.32,35.47,7.979937862969418,0.007960848126989934,7.967438532992965,7.991105865430827,0.13607906458890293,0.005087620639128135,0.12476496552609262,0.14283755831387893,0.09098626983142315,0.040193303079663685,0.0028607572725669606,0.1638383715076852,0.12079392381671747,0.0033401829785428888,0.11716296456884046,0.12849484892047247,-0.5653857149176815,1.9442016380746878,-2.98309326171875,3.717041015625,34.73777777777778,0.011811273125262567,34.73,34.77,0.16271186440677965,-2.0639834881324176e-05,0,1,0
0,0.022928918802571675,0.0066657534981065395,0.015137177538761842,0.04059515794486131,0.022928907947634747,0.006665750342426394,0.01513717037256666,0.04059513872642877,1.577630845728388e-05,4.586390845195585e-06,1.0415178494914085e-05,2.7931615054542318e-05,1.577630845728388e-05,4.586390845195585e-06,1.0415178494914085e-05,2.7931615054542318e-05,-4.23477966101695,35.93025412132006,-93.27,79.52,7.934907105294711,0.040410436540695815,7.833841675065167,7.970136769815154,0.08823124909049304,0.02581323284541093,0.041742835024963204,0.12246681354432076,0.027267112310097947,0.0541411108641311,7.501386911634711e-08,0.20097665244167806,0.15495901071177165,0.01585587233875679,0.13068066755103158,0.18185551014491774,-0.2071199526595951,10.443846640446333,-17.99774169921875,15.30914306640625,34.73000000000001,0.01154700538379227,34.71,34.75,0.08135593220338982,-0.001857585139318846,0,1,0
0,0.02071181527799044,0.009883814802239902,0.0,0.06605313835096077,0.020683721668636995,0.009942446701943662,-0.00206415959625909,0.06605310708029088,1.4231500856223029e-05,6.840932256703844e-06,-1.4202516129428298e-06,4.5448051614170555e-05,1.4231500856223029e-05,6.840932256703844e-06,-1.4202516129428298e-06,4.5448051614170555e-05,2.8809183673469403,63.38584132477157,-239.83,146.76,8.053774419677262,0.18055608028332756,7.8192951499848915,8.28129761328674,0.07006702490692862,0.03633236060127822,0.02019175368008839,0.11521425429215992,0.08039868912836319,0.1731676682985642,1.3554817912542205e-07,0.640054806718068,0.21013318211021137,0.014144816149138434,0.18508089082481483,0.23144990436626367,-1.8123646817466086,3.039573869166742,-10.6475830078125,1.959228515625,34.73315789473685,0.016239209074254097,34.71,34.75,0.08163265306122448,0.0005263157894735296,0,1,0
0,0.017243463838218478,0.00034261489811822566,0.015825231063251018,0.018577445161207715,0.01724345567487186,0.00034261473591855297,0.01582522357131969,0.018577436366331808,1.186441483465165e-05,2.3573716498868574e-07,1.088859569922836e-05,1.2782264516485466e-05,1.186441483465165e-05,2.3573716498868574e-07,1.088859569922836e-05,1.2782264516485466e-05,-0.14616949152542363,16.07740224521124,-43.91,27.79,8.118633144529392,0.061482698557515945,8.039891149747817,8.24976850291569,0.051513249468055286,0.024798596958073245,0.019260261567538507,0.10143367102719902,0.004265373693107668,0.010279280207948896,1.352939411003451e-06,0.03759746604618308,0.24561526605993084,0.00659616541105174,0.23333538965424006,0.25480405577010523,2.767124347645342,1.5962894490037804,0.0762939453125,5.76934814453125,34.734444444444456,0.020608041101102918,34.71,34.77,0.18983050847457628,-0.002807017543859677,0,1,0
0,0.017150198998922724,0.00021299368519031838,0.016513284587740193,0.01788939163671854,0.017150190879729247,0.0002129935843555149,0.01651327677007272,0.01788938316757878,1.1800243694022725e-05,1.465509170296858e-07,1.1362012903542639e-05,1.230884731217119e-05,1.1800243694022725e-05,1.465509170296858e-07,1.1362012903542639e-05,1.230884731217119e-05,2.4368813559322042,25.64173032388557,-56.67,38.17,8.006812809757648,0.01675169278055376,7.979975880299835,8.039527290555995,0.007482919668229291,0.004529197404093274,0.00207132438061239,0.017099265993593203,0.00041886733988822175,0.0017727444381841393,2.1872912375070497e-07,0.007939976157896655,0.25765023890786076,0.0008607973631470342,0.2554621978113324,0.258527698531106,-0.34454667538626316,4.0654059344640405,-5.92193603515625,6.02874755859375,34.70526315789473,0.010939268258330167,34.68,34.71,0.18983050847457628,-0.0012631578947368898,0,1,0
0,0.017173254294903267,0.00029897506613191065,0.016513284587740193,0.01788939163671854,0.017173246164795045,0.00029897492459207106,0.01651327677007272,0.01788938316757878,1.18161069566604e-05,2.0571065321252064e-07,1.1362012903542639e-05,1.230884731217119e-05,1.18161069566604e-05,2.0571065321252064e-07,1.1362012903542639e-05,1.230884731217119e-05,-1.4377288135593207,25.6602958210028,-59.99,36.55,7.960926375717644,0.014412646256659951,7.942604933637495,7.9888883507888915,0.0007738099048550694,0.0004820168371449529,0.00021881135063768159,0.001828606341603622,5.8627064421301e-07,5.930906020819873e-07,1.9218034116863514e-07,1.8792619105485742e-06,0.251904409562113,0.0031568581549522292,0.24643001201607295,0.2566053410819856,0.902214843295503,2.594296605674154,-3.5125732421875,5.5938720703125,34.701666666666675,0.013437096247164762,34.68,34.71,0.13559322033898305,3.09597523219826e-05,0,1,0
0,0.01725750574688152,0.00021994010274871179,0.016513284587740193,0.01788939163671854,0.017257497576887233,0.00021993999862535745,0.01651327677007272,0.01788938316757878,1.1874076410249898e-05,1.5133041958791435e-07,1.1362012903542639e-05,1.230884731217119e-05,1.1874076410249898e-05,1.5133041958791435e-07,1.1362012903542639e-05,1.230884731217119e-05,0.19265306122449077,23.317807618747942,-51.3,30.61,7.9239670106801015,0.012286741605665431,7.902634691396649,7.942840639464703,0.0004523541342750392,0.00017151190671525673,0.00017092791434341579,0.0006905031593716733,0.00036539822108846873,0.0014998716802687446,3.478140935195273e-07,0.006549519428135199,0.24048159365400076,0.002987116865845882,0.23604490162224612,0.24573922348429766,-1.619188010544694,2.6333971701360173,-5.70220947265625,5.12847900390625,34.69833333333331,0.02565800719723488,34.66,34.73,0.16326530612244897,-0.002053663570691356,0,1,0
0,0.016443549433231147,0.0012665375135983055,0.011696909916315968,0.019953552210186066,0.016443541648577455,0.0012665369139980805,0.01169690437880151,0.01995354276383787,1.1314031430132406e-05,8.71444775015171e-07,8.048092473342702e-06,1.372909892511402e-05,1.1314031430132406e-05,8.71444775015171e-07,8.048092473342702e-06,1.372909892511402e-05,-0.6232881355932205,20.551603864213465,-51.65,38.76,7.984531402615552,0.07417099229674723,7.900693135332405,8.095409658942692,0.025320755997288454,0.022615365052732792,0.00022393043149675627,0.05870125199777451,0.03746347244261328,0.05669409835414819,1.0458663926016243e-06,0.17503235448269772,0.2330429204811396,0.0013735415213832179,0.23113336497812198,0.2356484283480884,0.24741861423842665,1.5557320527155456,-3.12042236328125,2.15606689453125,34.686315789473674,0.012230473724865996,34.68,34.71,0.16271186440677965,-0.0013684210526316307,0,1,0
0,0.025851153848664706,0.011169459400479103,0.010320802867337619,0.0571084425326015,0.025851141610292405,0.011169454112668618,0.010320797981295449,0.05710841549650149,1.7786960676379242e-05,7.685178630546824e-06,7.101258064714148e-06,3.929362795808496e-05,1.7786960676379242e-05,7.685178630546824e-06,7.101258064714148e-06,3.929362795808496e-05,-5.010779661016948,72.31692698493673,-320.52,139.06,7.9682580924240405,0.042978918452554755,7.914167448857289,8.061377722005018,0.022875451034922126,0.01198621344941592,0.008097350883171383,0.047757808648284925,0.0011694055182693039,0.0048167560062673765,1.2898259896254594e-07,0.02102939632556955,0.23018463978635684,0.00042797734329046394,0.22957455601167998,0.23099616807484058,1.2673747565411204,5.1169046608595865,-6.93817138671875,13.24615478515625,34.682222222222215,0.01685083432011589,34.66,34.71,0.18983050847457628,0.0005779153766771063,0,1,0
0,0.03851240133019144,0.0008271581001917556,0.036466836797926255,0.041283211469350475,0.03851238309777096,0.0008271577086011569,0.03646681953391059,0.041283191925181796,2.6498568382023426e-05,5.691285072762523e-07,2.5091111828656657e-05,2.8405032258856593e-05,2.6498568382023426e-05,5.691285072762523e-07,2.5091111828656657e-05,2.8405032258856593e-05,11.994237288135587,65.48596108323174,-127.4,190.61,7.887711974776567,0.008939487378980402,7.868457519580016,7.907272010053678,0.00295411842707567,0.0019160883960857536,0.000772110224885767,0.007186945839676234,3.498462492400907e-07,2.3509426792298225e-07,1.323651391271774e-07,1.14438239038131e-06,0.2291273659140961,0.000221491648772966,0.22878615744618647,0.22952082638369642,-0.5385074662807265,8.72849979920524,-14.312744140625,13.51776123046875,34.68315789473684,0.015577524828368244,34.66,34.71,0.18983050847457628,0.0001052631578946411,0,1,0
0,0.038975657812390214,0.00257045779614453,0.031650462126502035,0.04953985376322058,0.038975639360656365,0.002570456579246449,0.03165044714263938,0.04953983031021816,2.6817313335544103e-05,1.7686108716062897e-06,2.177719139845672e-05,3.408603871062791e-05,2.6817313335544103e-05,1.7686108716062897e-06,2.177719139845672e-05,3.408603871062791e-05,-6.7033333333333305,91.88233069339717,-324.32,171.45,7.941950778454792,0.035299508189746795,7.873568226818783,8.000363133354778,0.01765540612953513,0.009957930846561061,0.0006015923858915644,0.03470352338137427,0.0334021139251683,0.039124584883675345,3.151720822368656e-06,0.13064965062680978,0.22844009913484348,0.00020001551845382753,0.22809059021250433,0.22875189425020526,-2.387767157542794,5.777803421449028,-12.28179931640625,6.24847412109375,34.68555555555556,0.013833221775543803,34.66,34.71,0.21768707482993196,0.0018369453044376758,0,1,0
0,0.039190967078556925,0.001145943639400528,0.03371462269996956,0.044035425567307176,0.03919094852489196,0.0011459430968914805,0.03371460673889847,0.04403540472019392,2.6965457494717254e-05,7.88469813405135e-07,2.3197443011399553e-05,3.02987010761137e-05,2.6965457494717254e-05,7.88469813405135e-07,2.3197443011399553e-05,3.02987010761137e-05,3.3333898305084753,40.05447827478197,-81.33,94.39,8.048938962560742,0.02894843850709449,8.009200133074815,8.114498993843016,0.04864322587138403,0.006743442404323544,0.03730069546724003,0.06042797714007559,0.03165342288740561,0.06052924076660622,1.0168891872996966e-07,0.2415841734880605,0.22751653009482434,0.0003414290754448239,0.22692205047668235,0.2280416463909991,2.6473132907308954,0.934801406193938,0.69732666015625,3.88946533203125,34.66736842105261,0.009647527778855908,34.66,34.68,0.13559322033898305,0.00021052631578950657,0,1,0
0,0.03946544844181494,0.0011452334644970448,0.036466836797926255,0.043347372042818,0.03946542975820591,0.0011452329223242048,0.03646681953391059,0.04334735152144089,2.7154315185296588e-05,7.879811755224492e-07,2.5091111828656657e-05,2.9825283871799426e-05,2.7154315185296588e-05,7.879811755224492e-07,2.5091111828656657e-05,2.9825283871799426e-05,2.650542372881358,45.199725487137755,-105.35,155.76,7.929907355108209,0.034686179423052285,7.89426225764784,8.01374039587482,0.018360482329903074,0.008086728680436906,0.009343670742208827,0.03626343690420307,0.011628731487746524,0.034680691525443494,8.803438311666412e-08,0.14792437862560806,0.22614635649397727,0.00044435727024807266,0.22539267230638904,0.2268472654175816,-0.0730594418413551,2.054042736570341,-2.81982421875,4.083251953125,34.69777777777777,0.01812167381144578,34.66,34.71,0.13559322033898305,-0.0018988648090816776,0,1,0
0,0.03953733415891202,0.000846587230975475,0.036466836797926255,0.04197126499383966,0.039537315441271086,0.0008465868301867993,0.03646681953391059,0.04197124512393483,2.7203776359474108e-05,5.824967765322158e-07,2.5091111828656657e-05,2.8878449463170872e-05,2.7203776359474108e-05,5.824967765322158e-07,2.5091111828656657e-05,2.8878449463170872e-05,-3.979523809523811,72.18397753919275,-262.04,133.29,7.928509240848243,0.015078360219568647,7.90113679470511,7.963185794471403,0.017757022277140745,0.002804011987434328,0.013290381380396506,0.02247829832923796,0.008607708160047599,0.017320858144857194,5.097333209413968e-07,0.06008113813490262,0.22427500564156982,0.0007114251441042264,0.2229348644537208,0.22529693236305937,-0.4915341550008239,3.1516000291411235,-4.38079833984375,6.109619140625,34.67333333333333,0.009428090415822108,34.66,34.68,0.08163265306122448,-0.0004953560371517803,0,1,0
0,0.039364150618734495,0.0006280081325217284,0.036466836797926255,0.04197126499383966,0.03936413198308155,0.0006280078352120835,0.03646681953391059,0.04197124512393483,2.708461692709566e-05,4.3210279985964045e-07,2.5091111828656657e-05,2.8878449463170872e-05,2.708461692709566e-05,4.3210279985964045e-07,2.5091111828656657e-05,2.8878449463170872e-05,-5.210101694915252,39.9349299251326,-95.55,74.9,7.875333576448031,0.024942591600217758,7.835236215913195,7.923368819298575,0.007102790696457317,0.003930046927997281,0.002087246318774028,0.014228756480830742,4.102250095362528e-07,3.4028241512500623e-07,1.643548634272518e-07,1.2123402108321635e-06,0.21971472984812918,0.0021340707827420123,0.21569759149940793,0.2227127746487484,0.5749586498175306,3.0153231767973985,-3.72467041015625,5.95550537109375,34.67631578947368,0.01723232162499623,34.66,34.71,0.16271186440677965,0.0011228070175438856,0,1,0
0,0.03929808407099327,0.0006066379514914736,0.037842943846904606,0.041283211469350475,0.039298065466617356,0.000606637664298834,0.03784292593141665,0.041283191925181796,2.7039159649112e-05,4.173989854048794e-07,2.6037946237285214e-05,2.8405032258856593e-05,2.7039159649112e-05,4.173989854048794e-07,2.6037946237285214e-05,2.8405032258856593e-05,-0.5861016949152568,59.505230307560026,-139.65,128.99,7.812506831286449,0.015484428782976857,7.785154437923258,7.833069306995972,0.0007807595840588938,0.0004858249993437025,0.00022118553294437718,0.0018433173580803353,1.0113732104987031e-06,1.128858984608972e-06,3.0113709411500045e-07,4.944792514589326e-06,0.20855497856934987,0.004341986782491372,0.20096518446618272,0.21509583939220134,-0.32187570447031105,1.4901755172665538,-2.61993408203125,2.984619140625,34.67333333333332,0.022852182001338598,34.65,34.71,0.13559322033898305,-0.00022703818369449995,0,1,0
0,0.038942893358843156,0.000635291841436271,0.036466836797926255,0.041283211469350475,0.03894287492262047,0.0006352915406783972,0.03646681953391059,0.041283191925181796,2.6794769659148163e-05,4.371143767045115e-07,2.5091111828656657e-05,2.8405032258856593e-05,2.6794769659148163e-05,4.371143767045115e-07,2.5091111828656657e-05,2.8405032258856593e-05,9.51850847457627,46.41058369737752,-145.37,102.39,7.751359352233382,0.020373233713948294,7.722114584284107,7.782150801384753,8.21214413134838e-05,5.1475251012929894e-05,2.284114924225485e-05,0.00019561845401227973,2.6663587440520983e-06,2.9440955737875296e-06,7.736834059623825e-07,1.0301085882901372e-05,0.19034084339487253,0.0059349484744133756,0.1805380131876877,0.1999550913174587,0.4930713928071204,1.1277196629790296,-1.06048583984375,4.3853759765625,34.67105263157894,0.012093816097975711,34.65,34.68,0.13559322033898305,0.00021052631578935698,0,1,0
0,0.03918160580611491,0.0015074119572463355,0.030274355077523685,0.04678763966526387,0.039181587256881735,0.0015074112436120868,0.03027434074513332,0.04678761751520604,2.6959016444318425e-05,1.0371791280035794e-06,2.083035698982817e-05,3.219236989337081e-05,2.6959016444318425e-05,1.0371791280035794e-06,2.083035698982817e-05,3.219236989337081e-05,-0.640442176870749,115.82706350832234,-316.61,305.19,7.707636662474883,0.022545357944495647,7.675348928822289,7.748541421253496,0.00574891181352836,0.006238208034715588,1.8359919957594486e-05,0.015760864312502856,0.010016321542431567,0.025998813283472522,6.472551578040608e-08,0.09426127277470688,0.1708403041243443,0.005086932431972935,0.1628267623550097,0.17945766389372098,1.0805664819760004,3.646490400660113,-3.72467041015625,7.84912109375,34.66888888888888,0.009938079900000616,34.66,34.68,0.13605442176870747,-0.0009907120743035606,0,1,0
0,0.03948404448301735,0.0023962344865126883,0.02476992688161029,0.04816374671424223,0.03948402579060459,0.0023962333520948635,0.02476991515510908,0.0481637239127121,2.7167110244872644e-05,1.6487360228675667e-06,1.7043019355313955e-05,3.313920430199936e-05,2.7167110244872644e-05,1.6487360228675667e-06,1.7043019355313955e-05,3.313920430199936e-05,0.5819322033898384,136.2738693531155,-550.07,232.51,7.651777003833325,0.024748804810835207,7.612216943575501,7.725741323903425,0.009221649072852854,0.003218041023921776,0.004114432262091219,0.013708008984964295,0.011909166140711492,0.034720364504591004,6.273381342181139e-08,0.11637430649594352,0.15535814679154197,0.0037607891622731737,0.14966326622484483,0.16197775968777828,-2.286663954666176,4.331873123049313,-8.28399658203125,5.79986572265625,34.668421052631565,0.009874559494366657,34.66,34.68,0.02711864406779661,0.0012631578947370394,0,1,0
0,0.038896086996633085,0.00034338137535831184,0.03853099737139378,0.039219050895882956,0.038896068582569256,0.0003433812127957765,0.03853097913016968,0.03921903232892271,2.6762564407153977e-05,2.3626454185582839e-07,2.651136344159949e-05,2.6984780645913764e-05,2.6762564407153977e-05,2.3626454185582839e-07,2.651136344159949e-05,2.6984780645913764e-05,-6.333830508474574,42.661784112156994,-151.27,61.79,7.739867456696064,0.04451931565991625,7.663593553824558,7.806991932430828,0.04115389578514015,0.01305083002995953,0.015895375580460263,0.05934472985634665,0.03209760088045595,0.05583367538141134,2.5165308366048578e-06,0.20072863770968974,0.14600735239804902,0.0016491417673801772,0.14379458270724865,0.14915877168038283,0.9591491112160158,2.2985561631396063,-3.01666259765625,5.3619384765625,34.65999999999998,1.4210854715202004e-14,34.66,34.66,0.16271186440677965,0.0,0,1,0
0,0.03544870354209435,0.011071864729239432,0.0,0.06054871015504737,0.035448686760080124,0.011071859487631907,0.0,0.06054868149026664,2.439058231686726e-05,7.618028336609218e-06,0.0,4.166071397965634e-05,2.439058231686726e-05,7.618028336609218e-06,0.0,4.166071397965634e-05,10.794440677966104,45.42124009542015,-198.72,100.75,7.644013037522679,0.02509837872654627,7.597476179167259,7.6843682377642955,0.014454234232563578,0.006894831770843571,0.0049717047681407224,0.027116996857251444,0.001596795029462277,0.0065625067005512325,7.130747912975632e-08,0.02865466173244896,0.1428612815223741,0.00040739412800889477,0.14224968182608722,0.14364726579835818,-1.3931359632245288,3.711546038659184,-9.521484375,4.65240478515625,34.673333333333325,0.009428090415822106,34.66,34.68,0.18983050847457628,0.0009907120743035606,0,1,0
0,0.017000070754725736,0.005449868789956437,0.0,0.028210194504056162,0.017000062706605482,0.005449866209896622,0.0,0.02821018114887423,1.1696947524282008e-05,3.749797878495423e-06,0.0,1.941010537688534e-05,1.1696947524282008e-05,3.749797878495423e-06,0.0,1.941010537688534e-05,-9.268299319727882,81.56355083613542,-248.24,224.18,7.594484507750891,0.04866651284918629,7.456648089053637,7.681673427128868,0.007333069455236807,0.0019828503451321143,0.0034312257294959007,0.009595525224006574,0.007565390249533929,0.019840466336338007,8.710342327966636e-08,0.08503458515105239,0.1408180130221867,0.0010653989651438704,0.13865815517253188,0.14217160585325284,3.52516115173813,4.836912590906995,-7.611083984375,10.31036376953125,34.678947368421056,0.018323047563716555,34.66,34.71,0.08163265306122448,0.0019298245614036231,0,1,0
0,0.021970906421443438,0.002067527673033189,0.016513284587740193,0.026834087455077812,0.02197089602004573,0.002067526694230715,0.01651327677007272,0.02683407475136817,1.5117145286062667e-05,1.4225683554727206e-06,1.1362012903542639e-05,1.8463270968256787e-05,1.5117145286062667e-05,1.4225683554727206e-06,1.1362012903542639e-05,1.8463270968256787e-05,-3.7445423728813547,16.722083005559288,-51.08,61.75,7.581630535015287,0.010472693773937575,7.566951129817976,7.5991017195390835,0.007634689770718572,0.002301475931351599,0.0045950855261646245,0.011916784621768796,0.0070076216581922935,0.02037227863881377,4.239071255407456e-07,0.08910815843724823,0.13365767280322804,0.0032403541185627126,0.12768554508793584,0.13828341700148983,-4.085909340124932,2.3617398191596206,-9.02252197265625,0.77972412109375,34.69,0.014142135623731488,34.68,34.71,0.10847457627118644,0.0012383900928793039,0,1,0
0,0.03417487471972918,0.01088301734978005,0.003440267622445873,0.05917260310606901,0.03403538829777656,0.011311642418039999,-0.006880531987530299,0.059172575092760575,2.341815778908664e-05,7.783011748882876e-06,-4.7341720431427655e-06,4.071387957102778e-05,2.341815778908664e-05,7.783011748882876e-06,-4.7341720431427655e-06,4.071387957102778e-05,-12.481898305084746,87.32790882716277,-353.03,157.01,7.525474769556213,0.03553142659959401,7.455846838844159,7.580623937974316,0.009530446747927919,0.0032572224461603176,0.00453316064351243,0.014485260044829537,0.0079778010217828,0.02492905791594165,9.564479397372594e-08,0.10348949670265178,0.1162710976662355,0.007047542135657871,0.10363717668689432,0.12677621346160228,3.438474404308991,3.8233720408331138,-3.67584228515625,10.83831787109375,34.67894736842104,0.013335641536127452,34.66,34.71,0.10847457627118644,-0.0018070175438598256,0,1,0
0,0.040843231664575104,0.0011600992519083886,0.036466836797926255,0.04541153261628553,0.04084321232870021,0.0011600987026978355,0.03646681953391059,0.045411511117699976,2.8102302890111406e-05,7.982096232604857e-07,2.5091111828656657e-05,3.124553548474225e-05,2.8102302890111406e-05,7.982096232604857e-07,2.5091111828656657e-05,3.124553548474225e-05,23.900915254237297,87.3514849456674,-345.08,178.51,7.447170974770277,0.03890894170914963,7.39384295107776,7.4925365272273385,0.016696572486540214,0.003229195510353257,0.012518508661860267,0.023642389238576225,0.01823823229380052,0.04104452880451235,2.8357988385296906e-07,0.1471562096818137,0.08591255736069031,0.010109419689021666,0.06898333774587062,0.10194265719266482,-0.8130297540989567,2.575358776654336,-3.69110107421875,5.133056640625,34.67555555555555,0.00831479419283228,34.66,34.68,0.10847457627118644,0.0006604747162023736,0,1,0
0,0.041615536641042464,0.0005161024950145075,0.039219050895882956,0.043347372042818,0.04161551693954541,0.00051610225068288,0.03921903232892271,0.04334735152144089,2.8633689548015253e-05,3.5510580446599315e-07,2.6984780645913764e-05,2.9825283871799426e-05,2.8633689548015253e-05,3.5510580446599315e-07,2.6984780645913764e-05,2.9825283871799426e-05,-3.6439115646258573,107.89338961110862,-306.34,153.3,7.311980981451078,0.06321778796374135,7.247924763637441,7.411227759283526,0.013684163664548284,0.0055143027573201,0.006232082021879432,0.02358845261295822,0.008833131635347198,0.02862696605250077,8.400758688686949e-08,0.12159616245291333,0.05010310326496157,0.010022822896062199,0.03425814988017073,0.0669318148084529,-0.6637809885938469,1.8042610146504179,-3.23333740234375,3.53546142578125,34.68666666666666,0.012472191289246943,34.68,34.71,0.08163265306122448,-0.0014860681114551647,0,1,0
0,0.04146917188137454,0.00048385455528286166,0.03990710442037213,0.043347372042818,0.04146915224916906,0.00048385432621795394,0.03990708552767574,0.04334735152144089,2.853298285461724e-05,3.3291751688475485e-07,2.745819785022804e-05,2.9825283871799426e-05,2.853298285461724e-05,3.3291751688475485e-07,2.745819785022804e-05,2.9825283871799426e-05,-1.0877627118644067,69.80990572038795,-165.41,167.91,7.26431213221328,0.00934044970130892,7.240714277247691,7.2762515519883655,0.029057990536334913,0.006355305934952405,0.018014841804239227,0.03638787003840608,0.02740577145933658,0.035333834735427,4.377855227333249e-06,0.10488659339501138,0.020020983122516826,0.007130317938046504,0.009061107414490177,0.03259723679988391,0.22663656002830335,2.1449234974164386,-2.74200439453125,5.01556396484375,34.6778947368421,0.018800601157361402,34.66,34.71,0.05423728813559322,-0.0019298245614036982,0,1,0
0,0.04145639500952797,0.0005778643037228001,0.039219050895882956,0.043347372042818,0.04145637538337129,0.0005778640301520922,0.03921903232892271,0.04334735152144089,2.8524191691235073e-05,3.9760119439046435e-07,2.6984780645913764e-05,2.9825283871799426e-05,2.8524191691235073e-05,3.9760119439046435e-07,2.6984780645913764e-05,2.9825283871799426e-05,-3.4540338983050924,69.96225919881549,-211.75,157.37,7.184194650050372,0.06518041287478551,7.07564797167289,7.251440377657008,0.02739937274978946,0.010361639159790348,0.010780202945609756,0.04129847288702339,0.010074129527544143,0.03320481687412464,7.649422689715024e-08,0.14181765471112606,-0.0006705670360475277,0.005271328353983123,-0.009394951101735272,0.007998287529695114,0.30754910764063953,2.170114450224296,-2.630615234375,4.35333251953125,34.690000000000005,0.014142135623731485,34.68,34.71,0.16271186440677965,0.0002476780185758608,0,1,0
0,0.04168767536550284,0.0005240612198219832,0.039219050895882956,0.043347372042818,0.0416876556298541,0.0005240609717225617,0.03921903232892271,0.04334735152144089,2.8683324804635993e-05,3.6058182793532944e-07,2.6984780645913764e-05,2.9825283871799426e-05,2.8683324804635993e-05,3.6058182793532944e-07,2.6984780645913764e-05,2.9825283871799426e-05,-0.8343728813559335,46.11929486499126,-130.67,103.39,7.040164391075675,0.02423759842274925,7.002953799988395,7.0950763097110086,0.00614573602329101,0.0016206157637351762,0.0034684335282998786,0.00953762883562965,0.004308763432286844,0.009979060610062644,4.309565867222087e-07,0.02998772754289751,-0.021598110427541145,0.007147836677978809,-0.03394344076258565,-0.010479819464449647,0.3088693169151287,2.4068494908059392,-3.03802490234375,4.45709228515625,34.70368421052632,0.012230473724865994,34.68,34.71,0.08135593220338982,0.00031578947368422246,0,1,0
0,0.04178403954499899,0.00036388748293933985,0.041283211469350475,0.043347372042818,0.04178401976372984,0.0003638873106688677,0.041283191925181796,0.04334735152144089,2.8749628455194283e-05,2.503738280913511e-07,2.8405032258856593e-05,2.9825283871799426e-05,2.8749628455194283e-05,2.503738280913511e-07,2.8405032258856593e-05,2.9825283871799426e-05,-1.2320408163265308,47.02759047519974,-97.11,97.03,6.9685694028406076,0.02164378712524297,6.924993574798263,7.001897093943622,0.012876343131269946,0.0030532638382284494,0.007843523318450996,0.017504193490340315,0.013019663548416183,0.022942761179371322,3.881895622032117e-06,0.06749691996798812,-0.04964739637619522,0.008952432756658728,-0.06478303625657011,-0.035472043223595096,-0.5498796183773069,2.0845221131625697,-3.076171875,3.8299560546875,34.71,0.0,34.71,34.71,0.19047619047619047,0.0,0,1,0
0,0.04176999763633596,0.000601712125433433,0.039219050895882956,0.044035425567307176,0.041769977861714505,0.0006017118405727638,0.03921903232892271,0.04403540472019392,2.8739966879596017e-05,4.140097566336632e-07,2.6984780645913764e-05,3.02987010761137e-05,2.8739966879596017e-05,4.140097566336632e-07,2.6984780645913764e-05,3.02987010761137e-05,0.9077288135593226,33.27963509101122,-94.38,83.94,6.889440731775606,0.026098371431830674,6.833996014536678,6.921153121760255,0.02269141964140578,0.003997749603241446,0.016114764924104054,0.028941289205428093,0.016734739048081315,0.0294481488825374,4.8073546365934305e-08,0.08640558122919678,-0.08495809054628171,0.011364002210888265,-0.10393974096735337,-0.0666929290359608,0.799938703589049,2.1311205320893594,-2.54669189453125,4.12139892578125,34.70052631578947,0.013944885578412919,34.68,34.71,0.16271186440677965,0.0004736842105263337,0,1,0
0,0.03919115683407938,0.0028118634793087246,0.032338515650991204,0.0488518002387314,0.03919113828032464,0.0028118621481251238,0.03233850034139241,0.04885177711146513,2.69655880565497e-05,1.9347107454700565e-06,2.2250608602771e-05,3.3612621506313634e-05,2.69655880565497e-05,1.9347107454700565e-06,2.2250608602771e-05,3.3612621506313634e-05,-4.8432881355932045,147.45367102476519,-640.72,286.49,6.878775993573545,0.12018817043498523,6.631336268973746,7.021872589809851,0.06591538071548207,0.03430515707660737,0.010160032004150527,0.09831874812259525,0.10205813152436301,0.2240973494886663,5.485399012794545e-08,0.9207550233010526,-0.12410399615337041,0.010834115768328316,-0.14148989487332314,-0.10609981435100718,3.375310894868184,7.30614347103514,-12.90435791015625,15.07110595703125,34.69999999999998,0.014142135623731485,34.68,34.71,0.05423728813559322,-0.0007430340557275823,0,1,0
0,0.038348452558774164,0.003816455416068372,0.030274355077523685,0.0488518002387314,0.03834843440396988,0.003816453609294003,0.03027434074513332,0.04885177711146513,2.638576295882225e-05,2.6259231137672852e-06,2.083035698982817e-05,3.3612621506313634e-05,2.638576295882225e-05,2.6259231137672852e-06,2.083035698982817e-05,3.3612621506313634e-05,5.4816666666666585,60.13257612848524,-116.0,118.43,7.045455920277195,0.07059789854832124,6.92678442878058,7.14151350737405,0.1433466065453703,0.02704357213353105,0.10370027816331727,0.178459232105875,0.11780706830739472,0.19521528127660517,9.798951903228215e-07,0.7231994338935643,-0.1578328263037506,0.008293700361988073,-0.1705021295346597,-0.14340447350366697,-7.2361039760390815,5.613072210695736,-15.9759521484375,2.30255126953125,34.71,0.0182574185835045,34.68,34.73,0.05442176870748299,0.003219814241485838,0,1,0
0,0.041835526543430174,0.001029782518982506,0.039219050895882956,0.0460995861407747,0.04183550673778623,0.0010297820314660916,0.03921903232892271,0.046099564316453005,2.878505423238784e-05,7.085448207686378e-07,2.6984780645913764e-05,3.1718952689056526e-05,2.878505423238784e-05,7.085448207686378e-07,2.6984780645913764e-05,3.1718952689056526e-05,0.05579661016949027,43.05785840942498,-95.38,105.66,7.075724182661195,0.10750891991813682,6.896717255955831,7.302317824847625,0.1762142654279956,0.029879429840659735,0.13840302575129315,0.22450383140670685,0.1361932668632919,0.2789486186125226,2.36087621452441e-07,1.1760404056472185,-0.1815346578821612,0.005650519514052522,-0.19043617622753972,-0.17175377455412738,3.6651710718500405,0.9780031874562859,1.23138427734375,4.90875244140625,34.72894736842106,0.013724636642531455,34.71,34.75,0.08135593220338982,-0.0008771929824558411,0,1,0
0,0.0417574105200119,0.0007496880480172548,0.03990710442037213,0.044035425567307176,0.04175739075134934,0.000749687693102288,0.03990708552767574,0.04403540472019392,2.873130627804618e-05,5.158250153048079e-07,2.745819785022804e-05,3.02987010761137e-05,2.873130627804618e-05,5.158250153048079e-07,2.745819785022804e-05,3.02987010761137e-05,3.442983050847466,159.0778088602535,-458.93,331.4,6.892665862745401,0.1496173919721246,6.636641523407661,7.128927156833587,0.14095717612531736,0.036831375224937415,0.08196387203069902,0.1918625626643818,0.08471422493788024,0.21267429174582164,2.5095137035080484e-07,0.8432146210920863,-0.19946994525557632,0.005079571939753242,-0.20807314444598607,-0.19136021468484188,0.5666502580633823,2.0891116791427593,-2.63519287109375,4.56695556640625,34.71888888888889,0.00993807989999709,34.71,34.73,0.08135593220338982,0.0,0,1,0
0,0.04140958864731783,0.00044699463257772917,0.039219050895882956,0.042659318518328826,0.041409569043320035,0.0004469944209629303,0.03921903232892271,0.04265929832268786,2.849198643924089e-05,3.0755594116830214e-07,2.6984780645913764e-05,2.935186666748515e-05,2.849198643924089e-05,3.0755594116830214e-07,2.6984780645913764e-05,2.935186666748515e-05,-1.6686440677966148,67.724124877069,-187.44,140.91,6.497151282293852,0.11085368262357065,6.360318902323145,6.6842194670366215,0.04587415440431017,0.023523214019777385,0.017556576644200305,0.08597305801830556,0.009263606542297777,0.03930014856754656,7.203092511343101e-08,0.1760000158427525,-0.21776353931664863,0.004774794504057677,-0.2244199632007185,-0.20915518449856518,0.03355608388744572,1.442706574198779,-2.2674560546875,3.704833984375,34.72473684210527,0.008806947647725358,34.71,34.73,0.08135593220338982,0.0012280701754383522,0,1,0
0,0.04199466817494464,0.0006923229016676967,0.039219050895882956,0.044035425567307176,0.04199464829396041,0.0006923225739103579,0.03921903232892271,0.04403540472019392,2.8894552089168017e-05,4.763547615479536e-07,2.6984780645913764e-05,3.02987010761137e-05,2.8894552089168017e-05,4.763547615479536e-07,2.6984780645913764e-05,3.02987010761137e-05,-4.789115646258501,118.56881693581181,-460.25,214.72,6.576698933612081,0.16982869304072765,6.366984993455824,6.7907119731831305,0.0721481241308063,0.046164075831345935,0.019430349802539618,0.12709603203535816,0.09587176662298295,0.2092801672861685,2.4779394780516384e-07,0.7722644546724711,-0.22264623073853806,0.003108350742285134,-0.22536129895452678,-0.2153502928038819,-0.07176316405644192,2.1868444951482298,-2.61688232421875,4.92095947265625,34.73444444444445,0.00831479419283228,34.73,34.75,0.16326530612244897,0.0011558307533541539,0,1,0
0,0.041436628809270314,0.0005172533236036933,0.03990710442037213,0.043347372042818,0.04143660919247123,0.0005172530787272461,0.03990708552767574,0.04334735152144089,2.851059150035914e-05,3.558976353831345e-07,2.745819785022804e-05,2.9825283871799426e-05,2.851059150035914e-05,3.558976353831345e-07,2.745819785022804e-05,2.9825283871799426e-05,5.830406779661017,46.53091352781327,-124.12,80.8,6.744427310468572,0.010351104683528812,6.729994745310196,6.7630528035801865,0.09060940436300408,0.015977391350960428,0.06216267167254717,0.11432838727291976,0.04259783384931904,0.07235699647160017,9.654440407125264e-06,0.31087352187076966,-0.1925818978219011,0.014026284954013927,-0.2136648691534836,-0.168259145606047,-0.7480607139265567,1.7906529448300057,-3.31878662109375,3.20587158203125,34.737368421052636,0.01617083315340759,34.71,34.75,0.18983050847457628,0.0003508771929823364,0,1,0
0,0.0415921334599374,0.0003946750652524354,0.04059515794486131,0.042659318518328826,0.04159211376951982,0.0003946748784066017,0.04059513872642877,0.04265929832268786,2.8617586922018176e-05,2.7155731255512503e-07,2.7931615054542318e-05,2.935186666748515e-05,2.8617586922018176e-05,2.7155731255512503e-07,2.7931615054542318e-05,2.935186666748515e-05,-4.7569152542372874,29.21958029912861,-74.96,36.79,6.71847010063079,0.008102404816491559,6.697573937252332,6.7283413022756475,0.03330516439407222,0.014191462800662732,0.012634682905516274,0.058913291622469104,0.004161250222984995,0.015954762631215265,2.4321688887884996e-07,0.06977623236010322,-0.14292191411446653,0.012873671135168508,-0.1653667447634692,-0.12378473006330465,0.8004373472890165,1.6001463990878755,-1.9500732421875,3.6407470703125,34.766666666666666,0.010000000000001561,34.73,34.77,0.18983050847457628,-0.00035087719298251103,0,1,0
0,0.04201310608654499,0.00025578008002628534,0.041283211469350475,0.042659318518328826,0.0420130861968319,0.00025577995893568214,0.041283191925181796,0.04265929832268786,2.8907238347217105e-05,1.7599021892261515e-07,2.8405032258856593e-05,2.935186666748515e-05,2.8907238347217105e-05,1.7599021892261515e-07,2.8405032258856593e-05,2.935186666748515e-05,5.1823389830508475,36.00208577225612,-82.96,75.15,6.708711602921365,0.006391749203866086,6.69691437463986,6.71670773348301,0.004762551379975434,0.0029508246638000526,0.001349590096034396,0.01118696432191035,1.7311557618858288e-07,3.240775140315061e-08,1.3179396295831536e-07,2.229463029745915e-07,-0.11604956886937323,0.0024829663589695065,-0.12220565948751666,-0.11390607986891116,-0.38595551701757874,1.2210154358227014,-2.23236083984375,2.20489501953125,34.75111111111111,0.012422599875000773,34.73,34.77,0.16271186440677965,0.000928792569659588,0,1,0
0,0.04052494840154604,0.005183664616427606,0.022017712783653588,0.059860656630558194,0.040524929216351875,0.005183662162393337,0.02201770236009696,0.05986062829151361,2.788330717655112e-05,3.5666353320897844e-06,1.514935053805685e-05,4.1187296775342064e-05,2.788330717655112e-05,3.5666353320897844e-06,1.514935053805685e-05,4.1187296775342064e-05,-4.357959183673473,29.475636115383445,-72.39,41.21,6.671914114392259,0.010034495173079569,6.657834061384341,6.6965864176350625,0.0018343371782117898,0.002253083798725323,0.0003630666835885451,0.008993276258345442,0.02042088388662544,0.07467445431832966,1.6950153806233326e-07,0.3331592170274036,-0.12348741239593136,0.005390897624075596,-0.13296565846066583,-0.11567995969148281,-0.6853860071463178,1.6963286228996162,-5.03692626953125,2.36663818359375,34.73736842105263,0.009647527778855908,34.73,34.75,0.16326530612244897,0.001052631578947533,0,1,0
0,0.01761791473589969,0.0036457499262173214,0.009632749342848445,0.031650462126502035,0.017617906395281685,0.003645748200257809,0.00963274478254242,0.03165044714263938,1.212205685060501e-05,2.5084687110354876e-06,6.627840860399872e-06,2.177719139845672e-05,1.212205685060501e-05,2.5084687110354876e-06,6.627840860399872e-06,2.177719139845672e-05,-2.3445762711864298,127.28068711159642,-358.91,309.6,6.761052395271758,0.02205684193067795,6.689115841960128,6.7980568606882485,0.0454055275363297,0.00725798333503002,0.020334323980214362,0.05134405389503766,0.042357055891510675,0.05794296742332815,6.321099632611293e-07,0.15274149496431455,-0.14238465995936833,0.0046731182744808196,-0.1493396570008622,-0.1340938873808314,2.929047416760394,4.001437178542049,-5.00640869140625,10.45989990234375,34.74111111111111,0.00993807990000062,34.73,34.75,0.05423728813559322,-0.0003302373581011868,0,1,0
0,0.02515114572625968,0.010612145824670445,0.008256642293870096,0.061236763679536545,0.025151133819283043,0.010612140800701601,0.00825663838503636,0.06123673468901967,1.730531807662322e-05,7.301717423540275e-06,5.681006451771319e-06,4.2134131183970615e-05,1.730531807662322e-05,7.301717423540275e-06,5.681006451771319e-06,4.2134131183970615e-05,2.2964406779660997,68.87632301261446,-138.64,303.95,6.71574582691746,0.04529881075009084,6.636007607182122,6.760264450307995,0.042308264729636946,0.012384704170648483,0.01887149434488632,0.055933593912127794,0.011901300234923234,0.03789710983903609,7.714339406161841e-08,0.16213466736804838,-0.15385982272726392,0.001953996720538137,-0.15626640287244636,-0.14996821759132617,-0.7967795095136089,5.509192873643915,-10.21575927734375,6.72454833984375,34.75105263157894,0.012093816097976688,34.73,34.77,0.10847457627118644,-0.00021052631578950657,0,1,0
0,0.015609921797084326,0.009986593419268365,0.0006880535244891746,0.05435622843464479,0.015151212274582005,0.010669683598831494,-0.01307301077630757,0.054356202701489366,1.0424840070512352e-05,7.341309929858754e-06,-8.994926881971256e-06,3.739995914082785e-05,1.0424840070512352e-05,7.341309929858754e-06,-8.994926881971256e-06,3.739995914082785e-05,2.0882033898305026,146.0887882813666,-518.44,301.41,6.678595274832217,0.06889089093818808,6.519468774214778,6.7537054796039175,0.037362729299696834,0.012772734497777972,0.013104012667581572,0.05156362564705478,0.04100684387910342,0.10846779860416143,9.082870017218525e-08,0.46448210648556504,-0.1555325478925215,0.0008737372538490945,-0.15640699259685298,-0.1537359140616541,-3.1798492630483053,6.115036934890301,-14.5904541015625,3.65753173828125,34.757777777777775,0.011811273125262568,34.73,34.77,0.16271186440677965,0.0010113519091848847,0,1,0
0,0.02153560725288905,0.005495302146321911,0.007568588769380921,0.028210194504056162,0.021535597057569324,0.005495299544753183,0.00756858518628333,0.02821018114887423,1.4817636442516927e-05,3.7810584298734968e-06,5.2075892474570424e-06,1.941010537688534e-05,1.4817636442516927e-05,3.7810584298734968e-06,5.2075892474570424e-06,1.941010537688534e-05,-0.482074829931963,157.55364628576507,-428.38,233.15,6.693226004284771,0.03829650268584654,6.63790600892039,6.740371791472,0.035053942429051965,0.010311104435459816,0.01613041021972903,0.048376400112662636,0.013805077200392233,0.049320329526533195,2.2140652611302158e-07,0.21464604839505397,-0.15158730821145175,0.0009187416109864276,-0.15344782400812756,-0.15064547884598262,2.4455702334420555,1.1266713353486812,0.32806396484375,4.15802001953125,34.77444444444444,0.0142291649720722,34.75,34.79,0.05442176870748299,0.0025180598555209852,0,1,0
0,0.031455203693876804,0.0036706225425724793,0.025457980406099465,0.04816374671424223,0.03145518880245271,0.003670620804837865,0.02545796835386211,0.0481637239127121,2.164284327290804e-05,2.525582386178108e-06,1.7516436559628233e-05,3.313920430199936e-05,2.164284327290804e-05,2.525582386178108e-06,1.7516436559628233e-05,3.313920430199936e-05,2.9900677966101674,59.174748164520196,-172.29,225.93,6.626641805933845,0.03682779079093551,6.551659722712203,6.702674759731863,0.020040220433411148,0.009047619052481989,0.006829755577518498,0.03176170537706146,0.021763660969481118,0.06912859424992564,1.4692582780972963e-07,0.3081202765666082,-0.1553993390004371,0.0038571770816205886,-0.16326734078679944,-0.1508708240326404,0.9030865084740424,2.8718592821433777,-4.73175048828125,7.05718994140625,34.80052631578946,0.016375104406425176,34.79,34.83,0.18983050847457628,0.0010175438596492072,0,1,0
0,0.03272700845733543,0.009985388963255681,0.0006880535244891746,0.056420389008112325,0.03272699296381757,0.009985384236004112,0.00068805319875303,0.05642036229774846,2.251791219432261e-05,6.870475564360708e-06,4.734172043142766e-07,3.882021075377068e-05,2.251791219432261e-05,6.870475564360708e-06,4.734172043142766e-07,3.882021075377068e-05,-2.180271186440681,75.10989929516514,-248.22,224.34,6.606060547584198,0.017209102737242177,6.548353247447635,6.634378536167731,0.03381693043930048,0.005979216583848322,0.025405816432638062,0.04388448236077431,0.025366618691611203,0.05106991870501445,8.202952517244455e-08,0.20897430504754755,-0.17728197233256832,0.008077872031544371,-0.1907725197641626,-0.16455585629329217,-1.7656743507965211,1.7115746371489744,-5.21392822265625,0.82855224609375,34.79666666666666,0.009428090415822106,34.79,34.81,0.16271186440677965,-0.0001651186790505934,0,1,0
0,0.037638387393678016,0.005523259030625106,0.020641605734675238,0.07706199474278756,0.03763836957503071,0.005523256415821127,0.020641595962590898,0.07706195826033936,2.5897200581948592e-05,3.8002942444388924e-06,1.4202516129428297e-05,5.302272688319898e-05,2.5897200581948592e-05,3.8002942444388924e-06,1.4202516129428297e-05,5.302272688319898e-05,-0.40562711864406614,72.97953639482326,-226.62,112.18,6.433838570697514,0.03895120743877567,6.393042100966061,6.5155276215492215,0.015492728658817167,0.005579130720556187,0.010013961688363179,0.02940004451295457,0.006218312816815914,0.017330361676597843,8.603662360329167e-08,0.07612607259291718,-0.20476218562539714,0.00690622442930371,-0.21471801428406184,-0.19236455949995807,0.8776823285199868,3.5322902369848634,-3.58123779296875,8.29010009765625,34.814210526315776,0.015326547135326716,34.79,34.83,0.10847457627118644,0.0006315789473686692,0,1,0
0,0.03665406224676683,0.0009309643070216467,0.03371462269996956,0.03715489032241543,0.03665404489411548,0.0009309638662874396,0.03371460673889847,0.037154872732663616,2.5219932836633358e-05,6.405526661225605e-07,2.3197443011399553e-05,2.5564529032970932e-05,2.5219932836633358e-05,6.405526661225605e-07,2.3197443011399553e-05,2.5564529032970932e-05,0.003129251700679553,38.699843067809574,-80.93,57.33,6.3632337884146315,0.01789558015112051,6.337074387719091,6.392248023613983,0.007781370579255816,0.002338995246202172,0.003931956945289532,0.011064936604419547,0.002023011099832785,0.004538985582300684,2.4478254599669125e-06,0.01827292432861602,-0.22048523182587465,0.0029460805026824723,-0.225437038160465,-0.21545818561864138,0.9808798285926837,3.6994849774656013,-5.29327392578125,5.88226318359375,34.81444444444443,0.01571348402636705,34.79,34.83,0.19047619047619047,-0.0009907120743035606,0,1,0
0,0.023323610289316704,0.011610199030453312,0.0,0.04541153261628553,0.008027287318785364,0.024786075406517213,-0.02821018114887423,0.045411511117699976,5.523200716999892e-06,1.7054138467987974e-05,-1.941010537688534e-05,3.124553548474225e-05,5.523200716999892e-06,1.7054138467987974e-05,-1.941010537688534e-05,3.124553548474225e-05,-12.322949152542384,132.60642930107304,-430.09,332.77,6.364830568910207,0.034148243453758956,6.318459802098968,6.431003803014498,0.024457000141535158,0.012741013167396965,0.0027965625238066585,0.04152507319828097,0.04373592259173642,0.0947319138262261,1.0385211811625439e-06,0.30730633040895994,-0.23644218458522176,0.007603958052910712,-0.25122894980592936,-0.22614733483973049,-3.168524465253276,7.821615699084047,-15.37933349609375,10.455322265625,34.8057894736842,0.015326547135327441,34.79,34.83,0.08135593220338982,-0.0016140350877195256,0,1,0
0,0.03120415713764418,0.009805167216997498,0.0006880535244891746,0.0488518002387314,0.025392882240466548,0.02061652845133776,-0.02821018114887423,0.04885177711146513,1.747165385111202e-05,1.4185268348125793e-05,-1.941010537688534e-05,3.3612621506313634e-05,1.747165385111202e-05,1.4185268348125793e-05,-1.941010537688534e-05,3.3612621506313634e-05,2.7784406779660995,141.55212999232867,-536.59,307.92,6.271016767013292,0.12873725471408612,6.0459253372551025,6.390594833195785,0.040890319829257664,0.013119619556137907,0.019377226732514796,0.05759794419318023,0.03632039248608791,0.11607318621168153,3.716438945478018e-08,0.48903341438272285,-0.2778313817283269,0.01549427048871909,-0.3037674092596233,-0.25359935042030174,2.254528929792943,3.6950550648634115,-1.91497802734375,10.6170654296875,34.809999999999995,7.105427357601002e-15,34.81,34.81,0.05423728813559322,0.0,0,1,0
0,0.022729169489247882,0.0011474529815382513,0.01926549868569689,0.026146033930588636,0.022729158728875588,0.0011474524383146523,0.01926548956508484,0.02614602155261514,1.56388703683682e-05,7.895083205993622e-07,1.3255681720799745e-05,1.7989853763942512e-05,1.56388703683682e-05,7.895083205993622e-07,1.3255681720799745e-05,1.7989853763942512e-05,14.84588435374151,189.48427066197243,-594.42,532.26,6.22914061406831,0.022882659447383904,6.158968515248463,6.27427796599228,0.07691597871804082,0.012525050096115532,0.03801533113590569,0.09450665983875393,0.07167119181876624,0.082983498654578,9.201546584680642e-07,0.2699698673082789,-0.3285568928883707,0.011931141258603057,-0.3450639982047051,-0.3068143966097064,0.33046873864109994,1.2591380665839593,-2.13775634765625,3.38897705078125,34.79666666666666,0.009428090415822108,34.79,34.81,0.10884353741496598,0.0004953560371517803,0,1,0
0,0.022883630484541364,0.00030123812541817357,0.022705766308142764,0.023393819832631935,0.02288361965104463,0.00030123798280696633,0.022705755558849988,0.02339380875760302,1.5745147699948943e-05,2.0726775765624337e-07,1.5622767742371126e-05,1.6096184946685404e-05,1.5745147699948943e-05,2.0726775765624337e-07,1.5622767742371126e-05,1.6096184946685404e-05,-3.8638983050847453,28.044855077690123,-58.94,38.89,6.2176756449429265,0.005506453438313485,6.209395908212853,6.233785224623561,0.08859405231525051,0.005766788279027515,0.07566415850793154,0.09565873611750335,0.05622464159939286,0.06109103799578921,6.39984343258071e-05,0.2738695271099061,-0.3434780618363236,0.0046723239091290055,-0.34787396378412183,-0.33295906026805466,-0.4658469491206091,0.5093443319570522,-1.74102783203125,0.15716552734375,34.82263157894736,0.009647527778852482,34.81,34.83,0.18983050847457628,-0.00035087719298238635,0,1,0
0,0.022975408905577737,0.0003452809653188215,0.022017712783653588,0.023393819832631935,0.022975398028631595,0.00034528080185699096,0.02201770236009696,0.02339380875760302,1.5808296106223988e-05,2.375715601857138e-07,1.514935053805685e-05,1.6096184946685404e-05,1.5808296106223988e-05,2.375715601857138e-07,1.514935053805685e-05,1.6096184946685404e-05,-1.3519322033898293,29.126778208531114,-64.6,46.43,6.196135376596778,0.006943036902679785,6.184349091524921,6.2087031552966945,0.05099870081156208,0.013621213781708726,0.028645649271147076,0.07347009000037581,0.016787312750724332,0.020094897656765077,9.654156434280026e-07,0.0692338818333702,-0.3120835711841082,0.01180536020854649,-0.33100432082812886,-0.292877258821278,-0.2454089556204914,2.239453409369587,-3.0914306640625,4.47540283203125,34.813333333333325,0.009999999999998935,34.79,34.83,0.18983050847457628,-0.0013415892672857194,0,1,0
0,0.02276661457901599,0.0003100546139667825,0.022017712783653588,0.023393819832631935,0.02276660380091657,0.0003100544671816997,0.02201770236009696,0.02339380875760302,1.5664634569963532e-05,2.1333396793203488e-07,1.514935053805685e-05,1.6096184946685404e-05,1.5664634569963532e-05,2.1333396793203488e-07,1.514935053805685e-05,1.6096184946685404e-05,0.20623728813559183,32.72447988080358,-66.6,51.82,6.174679054221971,0.008204885824630226,6.163664161374682,6.189228942905854,0.01110091989274123,0.006951625490483389,0.002981716635205664,0.02593345047421888,1.74511604188553e-07,1.1438688335203857e-07,1.0852203555233864e-07,5.597880790020326e-07,-0.27790920398393354,0.006369508505880606,-0.29080913418417786,-0.2704897969182035,0.6433794575352823,2.835594737500502,-3.55987548828125,5.120849609375,34.819473684210514,0.015034586165352574,34.79,34.83,0.18983050847457628,0.0006315789473685945,0,1,0
0,0.022724488853026827,0.001076587031248564,0.019953552210186066,0.026834087455077812,0.02272447809487048,0.0010765865215741032,0.01995354276383787,0.02683407475136817,1.5635649843168767e-05,7.407487999034596e-07,1.372909892511402e-05,1.8463270968256787e-05,1.5635649843168767e-05,7.407487999034596e-07,1.372909892511402e-05,1.8463270968256787e-05,-0.9204761904761914,29.411216561665523,-63.35,47.07,6.149468546320562,0.007643904272287026,6.138110341876264,6.161510184888011,0.0022638769153547934,0.0019265356857622606,0.0006657593619287625,0.008165783018061331,0.005705063222022588,0.017348144963942422,1.5629169242831198e-07,0.07161606588635375,-0.27522142579868736,0.004575443591792207,-0.2847882080812411,-0.27038825102056324,1.3145044482967103,2.8243839796371515,-3.497314453125,6.36444091796875,34.79888888888889,0.00993807990000062,34.79,34.81,0.19047619047619047,-0.0016511867905059342,0,1,0
0,0.01901910113976496,0.0049058734890339226,0.008256642293870096,0.03096240860201286,0.019019092135801653,0.0049058711665106594,0.00825663838503636,0.03096239394388635,1.3086147181416929e-05,3.3755003487879186e-06,5.681006451771319e-06,2.1303774194142445e-05,1.3086147181416929e-05,3.3755003487879186e-06,5.681006451771319e-06,2.1303774194142445e-05,-4.069355932203383,176.96853049344372,-629.49,281.14,6.1633800201481925,0.024649636903028512,6.122579037764557,6.207573033316704,0.03770580189222308,0.019711688410169924,0.00912621921070327,0.06905247228183883,0.05638438652562581,0.10546487546611946,3.5825715483106535e-06,0.33911318129618273,-0.30838006968502096,0.01471105463577506,-0.3343728628478438,-0.2865661828103596,-4.873567775224633,9.991577212583765,-19.7265625,12.65716552734375,34.816315789473684,0.013062814364199808,34.79,34.83,0.10847457627118644,0.0012982456140350413,0,1,0
0,0.015483544619116937,0.012019788149410878,0.0,0.05504428195913397,0.008874482073712551,0.017477375811722515,-0.02339380875760302,0.055044255900242395,6.106115778094341e-06,1.2025364333064507e-05,-1.6096184946685404e-05,3.7873376345142124e-05,6.106115778094341e-06,1.2025364333064507e-05,-1.6096184946685404e-05,3.7873376345142124e-05,14.391728813559315,123.17988684623755,-390.84,304.2,6.063391533487216,0.0954450999544519,5.8136028780551925,6.179057632175769,0.06429515331243815,0.0066485082008227924,0.05194004980293235,0.07398832875909615,0.035968727805946704,0.07914952076035563,7.613397423611445e-08,0.2508526604376231,-0.36409621327891695,0.015589901824514061,-0.3881111833756325,-0.33760982621109215,2.673546261126086,0.944202030450838,0.49591064453125,4.18853759765625,34.80555555555556,0.008314794192832282,34.79,34.81,0.21694915254237288,0.0,0,1,0
0,0.017294318318241412,0.009676036859946023,0.0006880535244891746,0.05229206786117727,-0.0027615108112114864,0.01962378204138078,-0.03096239394388635,0.05229204310523028,-1.9000663470451414e-06,1.3502206005204305e-05,-2.1303774194142445e-05,3.5979707527885024e-05,-1.9000663470451414e-06,1.3502206005204305e-05,-2.1303774194142445e-05,3.5979707527885024e-05,-25.21189830508474,228.3290982557737,-976.29,431.5,6.052002973889125,0.10932769166673138,5.752515238929611,6.1700206624463165,0.09881701662632175,0.020775827573447467,0.05655541085019106,0.12880403059874473,0.07972656138497335,0.15170627933808808,6.242660210986628e-08,0.4865964931482778,-0.4009616477056987,0.004572024896586549,-0.40509793932039473,-0.3903668488238815,1.469043112674042,1.3504153252702282,-1.007080078125,3.314208984375,34.796666666666674,0.01632993161855449,34.77,34.81,0.13559322033898305,-0.0023116615067079556,0,1,0
0,0.020309280562983194,0.00846021857096723,0.011008856391826794,0.0571084425326015,0.020309270948227195,0.008460214565757053,0.01100885118004848,0.05710841549650149,1.3973858840269706e-05,5.821077694106117e-06,7.574675269028425e-06,3.929362795808496e-05,1.3973858840269706e-05,5.821077694106117e-06,7.574675269028425e-06,3.929362795808496e-05,29.081870748299313,55.09416511912825,-172.34,290.76,6.009707274610269,0.06370156905905078,5.801250610969417,6.139457309317314,0.07521700781201135,0.008842267282638245,0.06372292588001685,0.09217787069677631,0.05831683732843238,0.1354886947287012,1.5204402337154477e-07,0.5540621702638704,-0.38980429818330115,0.00830016713461191,-0.40234586159092045,-0.376083685017329,-1.3097903229469476,3.8713689200865993,-7.65838623046875,7.44171142578125,34.809999999999995,7.105427357601002e-15,34.81,34.81,0.16326530612244897,0.0,0,1,0
0,0.03396269641968334,0.00697441812160655,0.018577445161207715,0.04472347909179635,0.033962680341169955,0.0069744148197993655,0.018577436366331808,0.04472345791894695,2.3368130846968654e-05,4.798768426193491e-06,1.2782264516485466e-05,3.0772118280427976e-05,2.3368130846968654e-05,4.798768426193491e-06,1.2782264516485466e-05,3.0772118280427976e-05,3.821898305084747,122.05442823033388,-318.46,319.11,5.968843586277714,0.04024678442876937,5.923200566252724,6.054441072915658,0.045058855793162045,0.010865189503458508,0.029145401969400613,0.061645657747533715,0.035204149113384445,0.09818728642958428,1.311784709745467e-07,0.3683279982146337,-0.37159033660846774,0.00245435127456635,-0.3773659527732498,-0.3689270006643903,0.8526637840448534,3.969106102412414,-5.69915771484375,7.97882080078125,34.81444444444443,0.008314794192829326,34.81,34.83,0.21694915254237288,0.00016511867905053473,0,1,0
0,0.03439802721415811,0.004759249315538696,0.018577445161207715,0.04953985376322058,0.03439801092955183,0.004759247062429794,0.018577436366331808,0.04953983031021816,2.3667661450819815e-05,3.274615164960783e-06,1.2782264516485466e-05,3.408603871062791e-05,2.3667661450819815e-05,3.274615164960783e-06,1.2782264516485466e-05,3.408603871062791e-05,-11.287423728813542,177.77171445178098,-310.75,390.7,5.874697234268206,0.06733492549444232,5.733529791798086,5.9869782918022665,0.05400922288556183,0.0038719920929006944,0.04604560319907682,0.05938966379989654,0.03993029032343053,0.08858448088695096,6.890792780822608e-08,0.33201589917368146,-0.4086301467548243,0.01967608833102466,-0.44299153686889237,-0.37951726478186,0.34209788585123296,5.5169546925581185,-5.51605224609375,10.97869873046875,34.814210526315804,0.008153649149908728,34.81,34.83,0.16271186440677965,0.0009122807017542045,0,1,0
0,0.0345477759473102,0.0033431605990785246,0.020641605734675238,0.042659318518328826,0.03454775959181028,0.003343159016369901,0.020641595962590898,0.04265929832268786,2.3770696496895743e-05,2.3002712551533437e-06,1.4202516129428297e-05,2.935186666748515e-05,2.3770696496895743e-05,2.3002712551533437e-06,1.4202516129428297e-05,2.935186666748515e-05,-13.081999999999987,100.52539635808037,-214.66,176.24,5.694954092115723,0.09927738131509377,5.526737993110104,5.853869329875076,0.0740066033748076,0.028888955316369976,0.03342977426138283,0.11288203048256745,0.08981397059891245,0.2187687732357424,5.318686979727261e-08,0.8722040262428893,-0.47808721402423804,0.017457398807842726,-0.5032174787652053,-0.4470981754398745,-0.7984853774688275,0.981830541677177,-2.98004150390625,1.52130126953125,34.82888888888889,0.009362388636862631,34.81,34.84,0.08135593220338982,0.0012590299277605622,0,1,0
0,0.033738025881074635,0.00298075321510104,0.028210194504056162,0.043347372042818,0.033738009908924074,0.002980751803962191,0.02821018114887423,0.04334735152144089,2.3213545637396647e-05,2.0509158134050497e-06,1.941010537688534e-05,2.9825283871799426e-05,2.3213545637396647e-05,2.0509158134050497e-06,1.941010537688534e-05,2.9825283871799426e-05,0.8461224489796029,98.74899460401981,-249.27,245.96,5.6956962644220575,0.021841306116076264,5.647385431705691,5.734811786006641,0.10255293820388557,0.004166877429526395,0.09354469908483873,0.10896524613853492,0.07315577549447327,0.09471470168662559,1.99612844342667e-06,0.22937067154764335,-0.5091935311303443,0.002084785322023175,-0.5115338084620322,-0.5049978394866036,-0.1411939673033305,1.3145724617285897,-2.89459228515625,2.79083251953125,34.83277777777778,0.004479032082390375,34.83,34.84,0.13605442176870747,-0.00031991744066063837,0,1,0
0,0.03410513956522014,0.0038800050621805807,0.022705766308142764,0.044035425567307176,0.03410512341927179,0.003880003225320736,0.022705755558849988,0.04403540472019392,2.346613926249685e-05,2.669648630354006e-06,1.5622767742371126e-05,3.02987010761137e-05,2.346613926249685e-05,2.669648630354006e-06,1.5622767742371126e-05,3.02987010761137e-05,0.8076949152542376,73.75907406475471,-105.99,295.62,5.613857600825399,0.06462260839712947,5.5258033024448725,5.712639813570933,0.05774841064293138,0.026774608181222192,0.022489791299756527,0.10035470703752399,0.030064721456611033,0.12434558687457041,1.109174593283413e-07,0.5575320525285372,-0.4870268464193388,0.011433091248517725,-0.5041676905034074,-0.46720272234276683,1.5173573647775958,3.5346018627339815,-4.26483154296875,7.79571533203125,34.835789473684216,0.004937279747185083,34.83,34.84,0.13559322033898305,0.0003508771929826356,0,1,0
0,0.025481383587204507,0.005194637474082937,0.020641605734675238,0.03990710442037213,0.02548137152388771,0.005194635014853933,0.020641595962590898,0.03990708552767574,1.7532539185625307e-05,3.5741852383247406e-06,1.4202516129428297e-05,2.745819785022804e-05,1.7532539185625307e-05,3.5741852383247406e-06,1.4202516129428297e-05,2.745819785022804e-05,-16.72505084745762,90.4629386567844,-296.83,219.67,5.7296033418637915,0.014405735227946631,5.6941916960184935,5.744022207255304,0.04828740077862984,0.012177794702632222,0.02438161277664827,0.06295393754752958,0.009787807085325173,0.03159178568301379,8.060882894511678e-08,0.13505306127078454,-0.4464619770902865,0.010718882016694907,-0.46485657593587676,-0.4299349160378285,1.6915189084376454,4.129013823364266,-5.64727783203125,9.11712646484375,34.853333333333346,0.014907119849995636,34.84,34.87,0.05423728813559322,0.0004953560371516042,0,1,0
0,0.02106001666172948,0.0067777850858518835,0.003440267622445873,0.04472347909179635,0.021013516610565514,0.0069205728578019534,-0.0034402659937651497,0.04472345791894695,1.4458417320949542e-05,4.761722292014028e-06,-2.3670860215713828e-06,3.0772118280427976e-05,1.4458417320949542e-05,4.761722292014028e-06,-2.3670860215713828e-06,3.0772118280427976e-05,21.321491525423735,82.65455995385365,-157.31,321.82,5.7132085097637,0.03716447640676494,5.651853583824263,5.758448608698875,0.019440326516342286,0.003282040080346172,0.013366749879299844,0.02475148039243035,0.01531047238817646,0.043677231582955174,1.0535474026518443e-07,0.19243262742539807,-0.41820143799425197,0.005027960778973384,-0.42831921113033705,-0.41241538234171027,-5.721241782971706,6.943247804865258,-14.97039794921875,9.12628173828125,34.85210526315791,0.015416651069341479,34.83,34.87,0.10847457627118644,-0.0016315789473682087,0,1,0
0,0.019752284852682434,0.00177148322946932,0.014449124014272667,0.028898248028545334,0.01975227550161759,0.0017714823908192776,0.01444911717381363,0.02889823434762726,1.3590616341539116e-05,1.218874125537869e-06,9.941761290599808e-06,1.9883522581199616e-05,1.3590616341539116e-05,1.218874125537869e-06,9.941761290599808e-06,1.9883522581199616e-05,1.1327210884353707,18.288632209814974,-37.66,31.72,5.7380774158102,0.003897855892699208,5.732208681936935,5.746850599606572,0.024142616213076108,0.0048150033819121035,0.017192358765011174,0.033716454840789466,0.026705595293434612,0.028171091435056774,3.8299858592383274e-05,0.08020615229037753,-0.418287048320984,0.005154077326446384,-0.4285414990917522,-0.41241345453593103,3.629080533389714,0.7752016285514953,1.55792236328125,4.74700927734375,34.84333333333334,0.012472191289245255,34.83,34.87,0.19047619047619047,0.001857585139318846,0,1,0
0,0.029352269741983756,0.012787331968160981,0.002064160573467524,0.05229206786117727,0.02935225584612415,0.012787325914422337,0.00206415959625909,0.05229204310523028,2.0195913525543066e-05,8.7983604989158e-06,1.4202516129428298e-06,3.5979707527885024e-05,2.0195913525543066e-05,8.7983604989158e-06,1.4202516129428298e-06,3.5979707527885024e-05,-9.190474576271182,103.6714253675567,-244.18,177.39,5.63471959341337,0.08383293171128574,5.502574154654979,5.7335500518508224,0.02394841449374473,0.008724567165912443,0.009842749080841337,0.03451680893453067,0.008100202781195805,0.019467291573202383,5.4657753267850495e-08,0.06949516288449953,-0.4462872162453184,0.009777818213197079,-0.4618513878832456,-0.4302077202974612,-0.3132566920580994,2.719973725755454,-3.93218994140625,5.51605224609375,34.86157894736842,0.01630729829982036,34.83,34.87,0.08135593220338982,0.0018245614035087329,0,1,0
0,0.04185503973632452,0.00041859168285550766,0.04059515794486131,0.043347372042818,0.0418550199214427,0.0004185914846871437,0.04059513872642877,0.04334735152144089,2.8798480340820577e-05,2.88013210009769e-07,2.7931615054542318e-05,2.9825283871799426e-05,2.8798480340820577e-05,2.88013210009769e-07,2.7931615054542318e-05,2.9825283871799426e-05,10.196847457627122,57.391451107555795,-211.65,116.1,5.619911363240317,0.0571894760944828,5.519790815572983,5.693390835149818,0.0423947983357231,0.01993921861791061,0.01019571575026753,0.06553577184169913,0.0447160908184407,0.0869146382029909,2.0480923801080575e-06,0.2607061088419538,-0.47105177194221576,0.0035523387369534197,-0.4744256606642482,-0.4633256255225099,0.4172670445455515,2.896884079389587,-2.79388427734375,7.08160400390625,34.87444444444444,0.00831479419283228,34.87,34.89,0.18983050847457628,0.0011558307533541539,0,1,0
0,0.041947861812734494,0.00025900460292686405,0.041283211469350475,0.043347372042818,0.041947841953909125,0.0002590044803097161,0.041283191925181796,0.04334735152144089,2.88623468371739e-05,1.782088611684675e-07,2.8405032258856593e-05,2.9825283871799426e-05,2.88623468371739e-05,1.782088611684675e-07,2.8405032258856593e-05,2.9825283871799426e-05,-0.859625850340137,43.300147297468406,-96.1,99.21,5.567879029977648,0.023433853126581552,5.5362468653787165,5.606913164992656,0.026607356421167225,0.00970945761116586,0.011370571458666136,0.04182338026717029,0.006461876424798008,0.01250145824027032,2.4730301043107694e-07,0.048080408100793615,-0.47042805598417226,0.0026100669994442056,-0.4741184437126247,-0.4659649083899486,0.23372498694483754,3.2760965264062727,-3.96575927734375,5.85174560546875,34.857777777777784,0.020964402515679596,34.84,34.89,0.19047619047619047,0.00231166150670778,0,1,0
0,0.03943436016204963,0.0041023420070979465,0.029586301553034506,0.04678763966526387,0.039434341493158304,0.004102340064980041,0.029586287546380288,0.04678761751520604,2.7132924805086966e-05,2.8226282040822284e-06,2.035693978551389e-05,3.219236989337081e-05,2.7132924805086966e-05,2.8226282040822284e-06,2.035693978551389e-05,3.219236989337081e-05,3.245525423728815,50.610253007366914,-100.65,147.42,5.506704569196385,0.013832068752480203,5.4872951640437995,5.534802272340839,0.0042026242516747065,0.0026480071421404816,0.0013411666687902636,0.010100523939130324,0.0001463086550294672,0.0006180838333557014,1.520992569253865e-07,0.0027686130446125876,-0.46456407135541977,0.0011973258288736275,-0.46760293546699516,-0.4633350191269765,-0.6312571447481292,1.8344229682266064,-3.37982177734375,3.49273681640625,34.868947368421054,0.02124908340861595,34.84,34.89,0.16271186440677965,0.0033157894736839996,0,1,0
0,0.036327366488908185,0.0029991125419223997,0.028210194504056162,0.043347372042818,0.036327349290920095,0.0029991111220919312,0.02821018114887423,0.04334735152144089,2.499514888183619e-05,2.0635480009711435e-06,1.941010537688534e-05,2.9825283871799426e-05,2.499514888183619e-05,2.0635480009711435e-06,1.941010537688534e-05,2.9825283871799426e-05,-5.331118644067791,49.14302967733349,-144.16,78.21,5.447879723196456,0.023747995162907255,5.413475821681615,5.489785206849408,0.0016752197673466215,0.0014510682538525347,0.0003785841260709916,0.004395414155684493,0.003719231162085916,0.008892464019334455,1.6774566281851921e-07,0.03172681689482289,-0.4790792405859986,0.007069623896066906,-0.49134575678656034,-0.46849867633221376,0.5834074668399007,3.440868812703127,-4.47235107421875,5.71136474609375,34.88222222222222,0.009749960430437214,34.87,34.89,0.18983050847457628,0.000928792569659588,0,1,0
0,0.042762292515191064,0.0026598042227119322,0.031650462126502035,0.05091596081219893,0.04276227227080056,0.0026598029635157483,0.03165044714263938,0.05091593670772422,2.942271822187237e-05,1.8300859370997993e-06,2.177719139845672e-05,3.5032873119256466e-05,2.942271822187237e-05,1.8300859370997993e-06,2.177719139845672e-05,3.5032873119256466e-05,5.9726101694915235,40.41936370527815,-98.35,66.48,5.367090079988583,0.03476144134630959,5.30028709710445,5.411151044908632,0.004888777545551867,0.003399990405774115,0.0016943573575992573,0.015413433087606721,0.009345105194589216,0.03035690868185057,1.3033176894661214e-07,0.1300613767715349,-0.5059447170312881,0.007482318590527114,-0.5171348067550087,-0.4929109197482934,0.13723775707462585,3.213368405397062,-4.180908203125,6.70928955078125,34.86894736842106,0.017135600627472262,34.84,34.89,0.18983050847457628,-0.001263157894736628,0,1,0
0,0.016616258584602518,0.012493276572419889,0.0,0.05779649605709067,0.015305673196751064,0.014068332085048292,-0.01100885118004848,0.05779646869525452,1.05311174020931e-05,9.679760892237362e-06,-7.574675269028425e-06,3.976704516239923e-05,1.05311174020931e-05,9.679760892237362e-06,-7.574675269028425e-06,3.976704516239923e-05,-13.903741496598638,91.1367001369456,-308.79,223.45,5.481149186931735,0.07683025866218698,5.3578405895913175,5.56149762003184,0.05429517013365612,0.02463105211103581,0.0166289203983959,0.07879355144571623,0.06300475797320101,0.11320517315898204,8.384913330328203e-07,0.3696030892371389,-0.5228186191485787,0.0022940413332885926,-0.5253556804346632,-0.518035918718436,1.833534714010158,4.250953624237119,-6.48345947265625,7.75299072265625,34.87444444444444,0.008314794192832282,34.87,34.89,0.13605442176870747,-0.0001651186790505934,0,1,0
0,0.0237238995639747,0.010729709305792135,0.0013761070489783493,0.0488518002387314,0.023091623231123643,0.012030227219564257,-0.018577436366331808,0.04885177711146513,1.588826522857441e-05,8.277436320146956e-06,-1.2782264516485466e-05,3.3612621506313634e-05,1.588826522857441e-05,8.277436320146956e-06,-1.2782264516485466e-05,3.3612621506313634e-05,13.726847457627118,119.43215854253522,-275.06,223.02,5.465064272301032,0.05073337026708686,5.360002738607974,5.536004438454254,0.04841537090998559,0.010201503821056241,0.034324107168060725,0.07193114302561711,0.020236094804858783,0.0592457218581587,7.722487826988811e-08,0.20896182411008857,-0.5231934790677696,0.0019160435074844825,-0.5253651415614792,-0.5193135806096849,-6.069382130360189,8.047064181040014,-15.47088623046875,6.61163330078125,34.86368421052632,0.012230473724863099,34.84,34.87,0.08135593220338982,0.0007368421052630112,0,1,0
0,0.014360191926073376,0.003053188729874563,0.005504428195913397,0.026146033930588636,0.014360185127716293,0.003053187284443514,0.00550442559002424,0.02614602155261514,9.880571311810886e-06,2.1007552774534355e-06,3.7873376345142126e-06,1.7989853763942512e-05,9.880571311810886e-06,2.1007552774534355e-06,3.7873376345142126e-06,1.7989853763942512e-05,-5.786847457627121,115.54227768558724,-305.24,348.22,5.46433170092579,0.055974706209236176,5.317705379033727,5.52423222121365,0.04157225501275256,0.005764732266370825,0.029918548615949656,0.04786171306543366,0.03379547338966665,0.06304197981443847,3.211524870483373e-07,0.22540600600663296,-0.5124200204351405,0.003999125703015915,-0.518686640102714,-0.505701390148272,7.517042405628248,5.571877210178389,-1.59454345703125,17.38128662109375,34.87333333333333,0.01972026594366447,34.84,34.89,0.10847457627118644,0.0021671826625388625,0,1,0
0,0.016513284587740228,0.00033934590791370647,0.015137177538761842,0.01926549868569689,0.01651327677007271,0.0003393457472616296,0.01513717037256666,0.01926548956508484,1.136201290354262e-05,2.3348792688660156e-07,1.0415178494914085e-05,1.3255681720799745e-05,1.136201290354262e-05,2.3348792688660156e-07,1.0415178494914085e-05,1.3255681720799745e-05,0.7279661016949155,19.761514144593946,-41.55,31.11,5.450078564482962,0.013177283152165577,5.42296561781968,5.470471046018524,0.020997956273960002,0.007044756540226739,0.009346184921329447,0.03293972033223862,0.0053141105590551385,0.012688506102150254,3.256951313923562e-07,0.05357141167734236,-0.4987062703205251,0.0035456732913638138,-0.5048949748365812,-0.49341582970444786,-3.44637433749491,2.564023776795272,-6.97784423828125,1.6021728515625,34.8811111111111,0.009938079900000618,34.87,34.89,0.18983050847457628,0.0,0,1,0
0,0.014631668826892225,0.0038408492005367026,0.006192481720402572,0.019953552210186066,0.014631661900013436,0.0038408473822139034,0.00619247878877727,0.01995354276383787,1.006736177337707e-05,2.6427073272544776e-06,4.260754838828489e-06,1.372909892511402e-05,1.006736177337707e-05,2.6427073272544776e-06,4.260754838828489e-06,1.372909892511402e-05,2.856870748299318,34.58387483164732,-98.37,71.44,5.412999618234613,0.01346806158963355,5.395082465537119,5.435173189182779,0.003688795375118954,0.002021464981195105,0.0013386993822798923,0.008299985193411269,0.0020991424922516978,0.008147526029137242,1.2946554667214727e-07,0.03652015892053409,-0.4911317518377217,0.000725853403043156,-0.49296607800010167,-0.4904877306741877,-0.6678263346354166,1.1165763017116397,-3.27911376953125,0.97808837890625,34.87105263157895,0.022917411639029578,34.83,34.89,0.19047619047619047,0.000245614035087633,0,1,0
0,0.007886872032409927,0.001177531237540931,0.003440267622445873,0.010320802867337619,0.007886868298631666,0.0011775306800777788,0.0034402659937651497,0.010320797981295449,5.426584961017383e-06,8.102037510573469e-07,2.3670860215713828e-06,7.101258064714148e-06,5.426584961017383e-06,8.102037510573469e-07,2.3670860215713828e-06,7.101258064714148e-06,-0.10037288135592949,38.47716643866976,-78.05,81.89,5.403346332977113,0.011634286211396944,5.386550511339826,5.4265328978953224,0.0025883861723676772,0.0011903959277106528,0.0008977648651423934,0.004334242882558756,3.795118048402182e-07,1.438414330063043e-07,2.5241355340946403e-07,6.708365126173454e-07,-0.49379165264393265,0.0018058777210791454,-0.49702728342710406,-0.49120980337981,0.4502062393647708,3.734280844871322,-3.59954833984375,8.44573974609375,34.86555555555557,0.020608041101102065,34.83,34.89,0.16271186440677965,-0.0024767801857584902,0,1,0
0,0.009423543879321313,0.0005463526715968561,0.008256642293870096,0.011008856391826794,0.009423539418056702,0.0005463524129442849,0.00825663838503636,0.01100885118004848,6.48389644016917e-06,3.7591952537275164e-07,5.681006451771319e-06,7.574675269028425e-06,6.48389644016917e-06,3.7591952537275164e-07,5.681006451771319e-06,7.574675269028425e-06,-3.9228813559322027,39.72422854797417,-103.69,67.67,5.366319232250694,0.008674085781881238,5.349543563959496,5.382871123461988,0.0003236388907500068,0.0002111563434572671,8.456335960423903e-05,0.0007935476206652524,5.896105708129228e-07,2.2710384511610417e-07,2.7646498052674717e-07,1.333185234600508e-06,-0.5015089488647057,0.0024554316735715563,-0.5055470697004766,-0.49746894812427367,0.06842506730526908,3.2598812846957066,-3.89862060546875,6.5887451171875,34.837894736842124,0.004076824574957261,34.83,34.84,0.18983050847457628,0.00024561403508784497,0,1,0
0,0.00947828834755495,0.0010081529771169653,0.006880535244891746,0.012384963440805145,0.009478283860373367,0.0010081524998403414,0.006880531987530299,0.01238495757755454,6.5215635288191226e-06,6.936625523460107e-07,4.7341720431427655e-06,8.521509677656977e-06,6.5215635288191226e-06,6.936625523460107e-07,4.7341720431427655e-06,8.521509677656977e-06,1.6067457627118644,35.07574129474731,-78.64,77.74,5.3401517409491746,0.006043862215293745,5.328951418949521,5.349919221622026,0.0003798105395192705,0.00031837820315029874,3.9115465254658944e-05,0.0007969066191628097,0.0004753802597796322,0.0014607887801418573,2.9162324463594125e-07,0.006078761878577683,-0.510152670124945,0.0026191346665831515,-0.5146098926335064,-0.5060038505979785,0.582980902491613,2.9157190237576778,-3.2745361328125,5.17730712890625,34.850555555555566,0.01778645621508999,34.83,34.87,0.18983050847457628,0.00031991744066063837,0,1,0
0,0.012941959151105898,0.0010225449483607344,0.00894469581835927,0.015137177538761842,0.012941953024164114,0.0010225444642707087,0.00894469158378939,0.01513717037256666,8.904752176387591e-06,7.035649895086633e-07,6.154423656085595e-06,1.0415178494914085e-05,8.904752176387591e-06,7.035649895086633e-07,6.154423656085595e-06,1.0415178494914085e-05,0.1479591836734695,28.11712040342409,-60.98,59.02,5.3005524655572,0.01370687297777608,5.274955305204759,5.32633395204194,0.0002440067497923952,0.00014450551963516117,7.168444120149918e-05,0.0005460122304170817,2.5343808974999556e-07,5.889817589247877e-08,1.841521374071342e-07,3.6115423569967053e-07,-0.5207659655065167,0.0035853052206627424,-0.5269204583475842,-0.5151891276560535,0.8672359267771984,3.4526583634496566,-3.88641357421875,7.00225830078125,34.83,0.0,34.83,34.83,0.19047619047619047,0.0,0,1,0
0,0.016336622196317263,0.002337578595616179,0.0006880535244891746,0.024081873357121114,0.016243634300291163,0.0029143756320459597,-0.00619247878877727,0.02408186195635605,1.1176484539689738e-05,2.0052454759971032e-06,-4.260754838828489e-06,1.656960215099968e-05,1.1176484539689738e-05,2.0052454759971032e-06,-4.260754838828489e-06,1.656960215099968e-05,0.7056610169491546,37.09896214209615,-61.01,153.47,5.248635633657537,0.01394192117267336,5.224222436489574,5.2724557957387725,2.598752692843651e-05,1.6698488188851566e-05,7.151868613050774e-06,6.330351972944927e-05,4.081967486431638e-07,8.707432912085713e-08,2.1933112849016612e-07,5.319196955137686e-07,-0.5351805572529603,0.00458805943268784,-0.542735951142864,-0.5277157543679701,-2.7451915125693045,9.362251013368292,-15.44647216796875,15.22979736328125,34.823684210526324,0.012230473724865092,34.81,34.84,0.18983050847457628,0.0010877192982456719,0,1,0
0,0.018872325243131673,0.0003404981893548827,0.018577445161207715,0.01926549868569689,0.018872316308654522,0.0003404980281572966,0.018577436366331808,0.01926548956508484,1.2985157604048761e-05,2.3428075744272765e-07,1.2782264516485466e-05,1.3255681720799745e-05,1.2985157604048761e-05,2.3428075744272765e-07,1.2782264516485466e-05,1.3255681720799745e-05,-1.2150847457627112,11.633261922561521,-41.42,21.3,5.198249060338892,0.014293066537490302,5.178658288610823,5.223785644981813,3.83465920996312e-06,2.8312828924297744e-06,1.9009409400631592e-06,1.4101007876617225e-05,5.5320037388694455e-05,0.00021907240259671384,2.8281206233945946e-07,0.0009584213653020384,-0.5501792621660679,0.003900369247871549,-0.556301482956436,-0.5435649967533156,1.310531138042245,1.8519457494934957,-4.92401123046875,2.69012451171875,34.83,0.0,34.83,34.83,0.18983050847457628,0.0,0,1,0
0,0.017568609925976995,0.002820424700532779,0.010320802867337619,0.021329659259164413,0.017568601608700673,0.0028204233652961547,0.010320797981295449,0.02132964916134393,1.2088132534484149e-05,1.940601318329801e-06,7.101258064714148e-06,1.4675933333742575e-05,1.2088132534484149e-05,1.940601318329801e-06,7.101258064714148e-06,1.4675933333742575e-05,2.805966101694913,33.802315280228,-69.36,110.11,5.166990373586855,0.012222086341834389,5.1504391721978555,5.188595485232837,0.0018539729987261673,0.0006736948981557602,0.00038467541293140084,0.002794598914097863,0.001681237237950491,0.006569271625410004,1.6795952648140933e-07,0.029469240952126757,-0.5621497490064212,0.0030379791841738148,-0.5669541985223119,-0.5569445660486227,1.574815414087944,3.277525343667395,-3.24249267578125,7.97882080078125,34.8278947368421,0.010041465278072918,34.81,34.84,0.13559322033898305,-0.001157894736842249,0,1,0
0,0.017032835208272805,0.0013586589756498105,0.013073016965294318,0.020641605734675238,0.017032827144641327,0.0013586583324377314,0.01307301077630757,0.020641595962590898,1.1719491200677881e-05,9.348292116462424e-07,8.994926881971256e-06,1.4202516129428297e-05,1.1719491200677881e-05,9.348292116462424e-07,8.994926881971256e-06,1.4202516129428297e-05,-0.49316326530612103,25.437583632927637,-68.96,73.91,5.122202711590159,0.013187114455944202,5.100800405905197,5.146696757294662,0.00037652842208272863,0.00023014080428481766,0.00010870538447012538,0.0008722235227022101,1.7451858479693412e-06,4.107294967368003e-06,1.264620113367726e-07,1.7739455691231833e-05,-0.5715160152656655,0.002465973289145239,-0.5755543546211289,-0.5674479887635917,0.4325104706340629,2.7279211825418366,-2.72674560546875,6.48040771484375,34.825555555555546,0.008314794192829326,34.81,34.83,0.16326530612244897,-0.0009907120743032085,0,1,0
0,0.01693454184763153,0.0008472598032087104,0.013761070489783492,0.019953552210186066,0.016934533830533782,0.0008472594021016279,0.013761063975060599,0.01995354276383787,1.1651860171490153e-05,5.829595417896051e-07,9.468344086285531e-06,1.372909892511402e-05,1.1651860171490153e-05,5.829595417896051e-07,9.468344086285531e-06,1.372909892511402e-05,-3.9996610169491538,17.385765653048402,-39.29,17.14,5.09937761128372,0.008627274963435162,5.082947377939182,5.113652059393131,0.0006563733591051059,0.00016239236025968027,0.00017979100212596743,0.0008638745558916867,0.0006999413526677689,0.0018240300506629909,3.4729735805955064e-07,0.007164461281704913,-0.5804221519858092,0.0026799289667891867,-0.5848323544921429,-0.5760350082798202,-1.7069856818793134,0.749560640977999,-3.253173828125,-0.45318603515625,34.81736842105264,0.00964752777885248,34.81,34.83,0.16271186440677965,0.0002105263157894318,0,1,0
0,0.016508635577439625,0.00012638127360018668,0.015825231063251018,0.017201338112229368,0.016508627761973035,0.0001263812137691598,0.01582522357131969,0.01720132996882575,1.1358814138648601e-05,8.695699839616117e-08,1.088859569922836e-05,1.1835430107856916e-05,1.1358814138648601e-05,8.695699839616117e-08,1.088859569922836e-05,1.1835430107856916e-05,1.603389830508474,23.09648048690386,-45.84,32.69,5.064482009178899,0.010441492809162263,5.051042883350076,5.08358874342779,0.0002803631292519882,0.00016487866920299624,8.283399132159603e-05,0.0006225270487514321,3.0571790740053895e-07,4.085078578471499e-08,2.461495576897704e-07,3.8951087030000137e-07,-0.5894142519289348,0.002476202736147715,-0.5934269597003786,-0.5853215986842959,0.7858967581336779,2.55322090790009,-2.64739990234375,5.11627197265625,34.801111111111105,0.016629588385661816,34.79,34.83,0.18983050847457628,0.0009907120743035016,0,1,0
0,0.016550729677508338,0.0003830693993174343,0.015825231063251018,0.01788939163671854,0.01655072184211369,0.00038306921796591896,0.01582522357131969,0.01788938316757878,1.138777710513795e-05,2.6357200076527243e-07,1.088859569922836e-05,1.230884731217119e-05,1.138777710513795e-05,2.6357200076527243e-07,1.088859569922836e-05,1.230884731217119e-05,2.3990816326530604,27.274899617718148,-59.31,37.94,5.035112405186962,0.006105023983032076,5.02681617961109,5.048416716447449,3.1313155075262e-05,1.9066418706006068e-05,9.432997869253176e-06,7.316390615517018e-05,5.619881171949278e-07,2.1522118993547053e-07,2.8762115413297727e-07,8.940384400921825e-07,-0.5976582793393812,0.002281881456875706,-0.6013743780415699,-0.5938844608369982,3.0160662554038074,3.362434830336736,-7.855224609375,7.64007568359375,34.78777777777777,0.01133115447464993,34.77,34.81,0.19047619047619047,-0.0011558307533539778,0,1,0
0,0.01847447116434535,0.0002454546341833005,0.01788939163671854,0.018577445161207715,0.01847446241821916,0.0002454545179809368,0.01788938316757878,0.018577436366331808,1.271141296209834e-05,1.6888576624516653e-07,1.230884731217119e-05,1.2782264516485466e-05,1.271141296209834e-05,1.6888576624516653e-07,1.230884731217119e-05,1.2782264516485466e-05,-1.790610169491524,21.060751551140793,-53.26,41.76,5.0059912755868625,0.012129781108644986,4.978381407993508,5.024152851143443,3.640708272900965e-06,2.157104314992023e-06,1.1630307530385046e-06,8.398762187756614e-06,2.467675452608136e-07,4.792030796552309e-08,1.6987500442447809e-07,3.273055654784533e-07,-0.6058018288115922,0.002460646176045203,-0.6099104733160157,-0.6018089610222299,-5.653805886545489,8.039778082285645,-17.24090576171875,4.79583740234375,34.78157894736841,0.020841041971814193,34.75,34.81,0.13559322033898305,-0.000140350877193154,0,1,0
0,0.017536066853872788,0.0010745551483815952,0.015137177538761842,0.01926549868569689,0.017536058552002912,0.00107455463966906,0.01513717037256666,0.01926548956508484,1.2065741180226003e-05,7.39350757059206e-07,1.0415178494914085e-05,1.3255681720799745e-05,1.2065741180226003e-05,7.39350757059206e-07,1.0415178494914085e-05,1.3255681720799745e-05,-2.048101694915254,15.142139778591531,-50.62,24.91,4.977004564989957,0.00695157863545842,4.968470678359374,4.9879381138089185,0.00020686397234631856,0.0003844022660310642,7.442219395306277e-07,0.0011316266049311836,0.0006898850543471881,0.0028288889563347986,3.7192658885074897e-07,0.012353657905082218,-0.6146460461899885,0.0026362659138931548,-0.6189942359417789,-0.6103881887983651,2.5633965520950492,1.7502590066871901,0.1617431640625,5.25054931640625,34.784444444444446,0.008958064164774383,34.77,34.79,0.16271186440677965,0.0006398348813208221,0,1,0
0,0.01648052013419312,0.00014652709075391524,0.015825231063251018,0.016513284587740193,0.01648051233203686,0.00014652702138551936,0.01582522357131969,0.01651327677007272,1.13394692271467e-05,1.0081838576806046e-07,1.088859569922836e-05,1.1362012903542639e-05,1.13394692271467e-05,1.0081838576806046e-07,1.088859569922836e-05,1.1362012903542639e-05,1.812983050847461,22.982897442015904,-46.81,28.31,4.952498883048531,0.009227114421464672,4.93558694325075,4.965889935073624,0.0016179854478036316,0.00047325079701896524,0.0010301959004656864,0.002359004966356898,0.001062140903381176,0.0030300231681829127,6.884949886910852e-07,0.01067731284904945,-0.6238136963910011,0.0025264514838019628,-0.6277612178432206,-0.6195046444246901,0.3818767538141672,0.2305323854691022,-0.60882568359375,0.726318359375,34.76578947368421,0.008153649149911627,34.75,34.77,0.16271186440677965,-0.0004912280701755154,0,1,0
0,0.016672426219254716,0.0006062824320915578,0.015825231063251018,0.019953552210186066,0.016672418326246892,0.0006062821450672273,0.01582522357131969,0.01995354276383787,1.147151076032279e-05,4.171543692603545e-07,1.088859569922836e-05,1.372909892511402e-05,1.147151076032279e-05,4.171543692603545e-07,1.088859569922836e-05,1.372909892511402e-05,0.3835034013605445,23.191319884782065,-50.81,29.43,4.923453017899487,0.008710057020944342,4.909069568094539,4.936236264884639,0.0003935852445610383,0.00024169016587353458,0.00011242187212502176,0.0009159911011380747,2.60236890424592e-07,1.1241214003296867e-07,1.6720092899016187e-07,5.651193565742174e-07,-0.630688466649642,0.001422712771053345,-0.6328994964681498,-0.6281369384875486,1.321426751300064,2.0424635432093488,-0.6988525390625,5.609130859375,34.76111111111111,0.009938079900000618,34.75,34.77,0.16326530612244897,-0.0009907120743035606,0,1,0
0,0.016936344525095015,0.0009379831937856568,0.014449124014272667,0.01926549868569689,0.016936336507143837,0.0009379827497285869,0.01444911717381363,0.01926548956508484,1.165310050889802e-05,6.453820313259191e-07,9.941761290599808e-06,1.3255681720799745e-05,1.165310050889802e-05,6.453820313259191e-07,9.941761290599808e-06,1.3255681720799745e-05,1.728949152542374,47.668808683127395,-125.39,83.44,4.897144977322647,0.011042853098185307,4.883200331908839,4.915361476566177,4.044430537109561e-05,2.634767634589742e-05,1.0704879546548294e-05,9.923519086187864e-05,2.3567485885241982e-07,6.295093833130469e-08,1.5361319772070562e-07,3.507621749171007e-07,-0.6369498471921415,0.0028025451849063325,-0.642447051431464,-0.6331686531171872,-3.1759503461586926,3.0591866544470996,-8.83331298828125,3.01361083984375,34.7657894736842,0.008153649149911627,34.75,34.77,0.05423728813559322,0.00021052631578950657,0,1,0
0,0.017140489841356164,0.00019535699415458563,0.016513284587740193,0.017201338112229368,0.017140481726759152,0.00019535690166928884,0.01651327677007272,0.01720132996882575,1.179356328026448e-05,1.3441594109203524e-07,1.1362012903542639e-05,1.1835430107856916e-05,1.179356328026448e-05,1.3441594109203524e-07,1.1362012903542639e-05,1.1835430107856916e-05,-1.433423728813558,32.54853291192644,-104.61,45.74,4.857180616994466,0.008631096396824285,4.84462769023398,4.878374277188737,0.005175963859614131,0.005153623806209311,6.0533643004243745e-06,0.015086629314727026,0.013372785333467276,0.02269201061275878,3.915098304404824e-07,0.08624877815120752,-0.6545428174799495,0.007807906241358679,-0.6687226988644159,-0.6433555059848738,1.8990218694854366,1.6589414450844988,-0.91705322265625,5.242919921875,34.75666666666666,0.009428090415822108,34.75,34.77,0.16271186440677965,0.0,0,1,0
0,0.017196689101928748,5.636625431888255e-05,0.016513284587740193,0.017201338112229368,0.017196680960726074,5.636622763414683e-05,0.01651327677007272,0.01720132996882575,1.1832231342962883e-05,3.8782963225316245e-08,1.1362012903542639e-05,1.1835430107856916e-05,1.1832231342962883e-05,3.8782963225316245e-08,1.1362012903542639e-05,1.1835430107856916e-05,0.2257288135593213,24.111301240697845,-52.14,29.32,4.827733109156425,0.008562178778389532,4.8152284109057,4.843512826557004,0.029551048785132213,0.008064186941028617,0.016790891110813982,0.043278518564676696,0.033995472957329034,0.024464724841385618,0.00012519352092599245,0.10468311406936082,-0.6880753471370991,0.010445767902483666,-0.7045692690443759,-0.6707260951190129,0.17071427153830865,1.0713320907217183,-1.31988525390625,2.618408203125,34.75666666666667,0.01632993161855707,34.73,34.77,0.18983050847457628,-0.0009907120743035606,0,1,0
0,0.014903145727711092,0.010801391343621318,0.0006880535244891746,0.0653650848264716,0.0148563323322593,0.010865674227148726,-0.00206415959625909,0.06536505388153785,1.022194698294908e-05,7.476161908598035e-06,-1.4202516129428298e-06,4.497463440985627e-05,1.022194698294908e-05,7.476161908598035e-06,-1.4202516129428298e-06,4.497463440985627e-05,-3.4171768707482957,95.32722922200973,-229.51,263.68,4.76072475197016,0.07519954864290083,4.574539973750087,4.817426062310459,0.038587181028059865,0.009109108124599736,0.022083896561879233,0.05054554768142492,0.02796862810931995,0.07293755701065213,5.693632654235614e-08,0.3088456613423017,-0.7155507604756728,0.004258333163358639,-0.7195636357793662,-0.7062330489314456,0.34164405053900193,3.07908672148227,-4.95452880859375,7.74383544921875,34.740526315789474,0.02372511088333787,34.71,34.77,0.08163265306122448,-0.002877192982456615,0,1,0
0,0.011570532738348587,0.00048167362813476296,0.009632749342848445,0.012384963440805145,0.011570527260663222,0.0004816734001023439,0.00963274478254242,0.01238495757755454,7.961138292958421e-06,3.3141692369466585e-07,6.627840860399872e-06,8.521509677656977e-06,7.961138292958421e-06,3.3141692369466585e-07,6.627840860399872e-06,8.521509677656977e-06,4.538372881355931,24.085473251718852,-62.85,46.05,4.73144721218307,0.014379388928776726,4.7096288548238086,4.765828560401731,0.025377315112776834,0.009492874422024893,0.010759361582805778,0.04296086174440546,0.004183281087746071,0.014794045277361006,1.587496363808505e-07,0.06475643622192118,-0.7118198897028437,0.00453317393881623,-0.7185093560710653,-0.704263742647935,-0.22952144574275712,4.869151479057443,-6.11114501953125,8.04595947265625,34.73444444444445,0.00831479419283228,34.73,34.75,0.18983050847457628,-0.0004953560371517803,0,1,0
0,0.012152512925775023,0.0004421206351597735,0.011696909916315968,0.013761070489783492,0.01215250717257041,0.0004421204258524058,0.01169690437880151,0.013761063975060599,8.361571432956199e-06,3.042023732417993e-07,8.048092473342702e-06,9.468344086285531e-06,8.361571432956199e-06,3.042023732417993e-07,8.048092473342702e-06,9.468344086285531e-06,0.6287796610169482,22.435218905201975,-57.04,42.24,4.684923559220122,0.012027160141079022,4.669214296505334,4.7057450777860526,0.004244794319354645,0.002345572673797669,0.0014906571889994388,0.009546432312506637,0.003466722640253957,0.010225487450865003,1.3985224922574702e-07,0.03795184347780081,-0.7024957243308796,0.0022900299023664657,-0.7085596684593604,-0.700314379567001,-0.29329721152634536,1.8517834131950037,-4.49676513671875,3.01055908203125,34.74368421052632,0.009296590385609713,34.73,34.75,0.18983050847457628,0.001368421052631793,0,1,0
0,0.012534743799877601,0.0003057856454938236,0.011696909916315968,0.013073016965294318,0.012534737865718458,0.00030578550072974124,0.01169690437880151,0.01307301077630757,8.624566484038308e-06,2.103966919093961e-07,8.048092473342702e-06,8.994926881971256e-06,8.624566484038308e-06,2.103966919093961e-07,8.048092473342702e-06,8.994926881971256e-06,-4.728000000000002,29.87664170767548,-63.36,75.13,4.683441523174667,0.007282304809702697,4.669601407983837,4.695933648596235,0.03165366992298423,0.01569594032381436,0.006081660220389492,0.055097493143740336,0.04869551757092561,0.033655675189071026,0.00012995687876418693,0.12550395565156364,-0.7320715125526119,0.014402637176241007,-0.7566985043270569,-0.7103713592717201,-1.2685839078680092,0.7676694837160752,-2.78778076171875,-0.018310546875,34.745555555555555,0.008314794192832283,34.73,34.75,0.18983050847457628,0.0006604747162023736,0,1,0
0,0.009684236341279608,0.007107585787500396,0.0,0.03371462269996956,0.00968423175659877,0.007107582422649393,0.0,0.03371460673889847,6.6632666375934595e-06,4.890394821304725e-06,0.0,2.3197443011399553e-05,6.6632666375934595e-06,4.890394821304725e-06,0.0,2.3197443011399553e-05,-5.989387755102044,32.20068285760263,-108.37,44.9,4.638717506834867,0.047945779222751644,4.502239159839318,4.677063352432555,0.0667149567398592,0.007901577182693065,0.050986945415236504,0.07839103719751599,0.047231934724027425,0.054631172487667724,3.0416899376994877e-07,0.15361558412950016,-0.779949912726004,0.010751861627429754,-0.7936380110970584,-0.7596723221883276,2.735223604490976,3.411615485414657,-1.06658935546875,8.013916015625,34.74111111111111,0.009938079900000618,34.73,34.75,0.05442176870748299,-0.0006604747162023736,0,1,0
0,0.017350106441848635,0.007125160002483291,0.006192481720402572,0.03371462269996956,0.017350098228015587,0.00712515662931236,0.00619247878877727,0.03371460673889847,1.1937790584465406e-05,4.902486810414729e-06,4.260754838828489e-06,2.3197443011399553e-05,1.1937790584465406e-05,4.902486810414729e-06,4.260754838828489e-06,2.3197443011399553e-05,8.400881355932206,89.77282461048694,-198.95,194.06,4.599243705590989,0.07976778632983414,4.4828566951904305,4.704227334648263,0.0625835101149369,0.015128940356745007,0.04251468007843706,0.0874212609970191,0.0430110708530707,0.130266092630316,5.1837830028489407e-08,0.5173502799921719,-0.7861570891147087,0.006633091802840753,-0.7940966677457739,-0.7744778019830016,-2.427936014407326,2.397237044600899,-5.560302734375,3.27911376953125,34.741578947368424,0.009874559494366657,34.73,34.75,0.05423728813559322,0.0001403508771930044,0,1,0
0,0.01258623079830878,0.00102215921980015,0.00894469581835927,0.015137177538761842,0.012586224839774802,0.0010221587358927346,0.00894469158378939,0.01513717037256666,8.659992261231905e-06,7.032995878643485e-07,6.154423656085595e-06,1.0415178494914085e-05,8.659992261231905e-06,7.032995878643485e-07,6.154423656085595e-06,1.0415178494914085e-05,-2.62437288135593,52.057962710385375,-151.53,112.11,4.500743240567069,0.06262291071863625,4.370639622841985,4.58951064118557,0.02640729982562857,0.009268887589245735,0.013415275169831322,0.045585933811292514,0.010510689175882451,0.022206774424952544,5.743810461700249e-07,0.07995514269225587,-0.778698900153191,0.00900483819240379,-0.8007236505272584,-0.7711823897038788,1.3921469588698419,1.6652333820599305,-1.77764892578125,4.522705078125,34.763333333333335,0.009428090415822106,34.75,34.77,0.16271186440677965,-0.0008255933952529671,0,1,0
0,0.012040936678560555,0.0015291498786925476,0.008256642293870096,0.015825231063251018,0.012040930978178016,0.0015291491547672008,0.00825663838503636,0.01582522357131969,8.284801075499835e-06,1.052135967308065e-06,5.681006451771319e-06,1.088859569922836e-05,8.284801075499835e-06,1.052135967308065e-06,5.681006451771319e-06,1.088859569922836e-05,0.7030847457627087,58.61615432721138,-152.37,120.94,4.314381244592712,0.04861856976584601,4.250314580681433,4.383133283554561,0.08448850981365331,0.06727959266962029,0.01463659542199721,0.2019696849205902,0.14228085943351806,0.16974041889337346,7.636864632898366e-07,0.5901207467677019,-0.8923200839275304,0.060736486641481804,-1.0016101687264203,-0.8063428506591341,-0.06875494869412027,2.3683885020102036,-2.63519287109375,5.30242919921875,34.737368421052636,0.01617083315340759,34.71,34.75,0.16271186440677965,0.0006315789473682455,0,1,0
0,0.013957657211066125,0.003507480279362081,0.0,0.026834087455077812,0.013798509047101564,0.004088956431897038,-0.006880531987530299,0.02683407475136817,9.494108287880886e-06,2.81341955252853e-06,-4.7341720431427655e-06,1.8463270968256787e-05,9.494108287880886e-06,2.81341955252853e-06,-4.7341720431427655e-06,1.8463270968256787e-05,11.351666666666665,60.94993305770916,-151.39,119.51,4.038707340906135,0.2819811929231594,3.3113449025310406,4.298183793281733,0.2359964030118629,0.03908036499419231,0.15601448446669472,0.2947188382837446,0.1430854637937732,0.2154564446690648,4.935541531025933e-08,0.606210140581851,-1.124125179067762,0.06234615205983722,-1.2161251284807886,-1.0154390608311843,-0.44898276885153343,2.733823162521137,-3.50799560546875,5.29022216796875,34.74111111111111,0.021314806770279783,34.71,34.77,0.16326530612244897,-0.0013209494324047473,0,1,0
0,0.02044969964961364,0.003782087300165157,0.011696909916315968,0.032338515650991204,0.020449689968380872,0.0037820855096612326,0.01169690437880151,0.03233850034139241,1.4070474596252217e-05,2.602276032879898e-06,8.048092473342702e-06,2.2250608602771e-05,1.4070474596252217e-05,2.602276032879898e-06,8.048092473342702e-06,2.2250608602771e-05,-10.62172881355933,83.01768436105782,-252.97,246.14,4.5592884278581085,0.8241968381363995,3.0544231222459333,5.309622915717963,0.4980816692225035,0.2334791860355113,0.09772220159848197,0.724838446504703,0.5861048377529585,1.5289573390305766,9.296378111756098e-08,6.87924928761079,-1.2321116092031201,0.016279392176305883,-1.2488850533259561,-1.1923212427804097,1.0887709208221057,3.0372078363897828,-3.75213623046875,5.94024658203125,34.73315789473685,0.007292845505554309,34.73,34.75,0.16271186440677965,0.0002807017543860088,0,1,0
0,0.019163220459083655,0.0015372133758903355,0.010320802867337619,0.023393819832631935,0.019163211386891827,0.0015372126481475923,0.010320797981295449,0.02339380875760302,1.3185308893131422e-05,1.057684079721566e-06,7.101258064714148e-06,1.6096184946685404e-05,1.3185308893131422e-05,1.057684079721566e-06,7.101258064714148e-06,1.6096184946685404e-05,-11.304881355932205,43.63652634075745,-165.27,58.24,4.860220314521382,0.1405308697802258,4.550970095595209,5.055017709974193,0.4270215459647413,0.10898326756294595,0.23156832524542373,0.5900092862689233,0.139968593648766,0.1703554445027685,1.283837782750652e-07,0.5577850906155764,-1.0766776802926197,0.06858202865893909,-1.1825025425976508,-0.9609280284002355,-0.18888515528040645,1.9629100272400468,-2.63214111328125,3.99322509765625,34.76333333333333,0.009428090415822106,34.75,34.77,0.16271186440677965,0.0008255933952529671,0,1,0
0,0.02059948000868611,0.0032224880178729686,0.009632749342848445,0.029586301553034506,0.020599470256544808,0.0032224864922927848,0.00963274478254242,0.029586287546380288,1.4173531402633553e-05,2.217242138960482e-06,6.627840860399872e-06,2.035693978551389e-05,1.4173531402633553e-05,2.217242138960482e-06,6.627840860399872e-06,2.035693978551389e-05,9.768809523809521,70.73279426572365,-179.19,220.51,4.753873037615787,0.17590343805129283,4.4489479722190675,4.948415415131743,0.17099584298916518,0.024911411545967512,0.12363978386364163,0.20716993939354456,0.09712511160339184,0.2774911509333708,2.3878721311376694e-07,1.2137258986576551,-0.8497400166035858,0.053253830495631115,-0.9471686029401454,-0.775454577123524,0.5629669643809126,4.3334024858542906,-5.82122802734375,12.274169921875,34.75222222222222,0.0062853936105480715,34.75,34.77,0.027210884353741496,0.0006604747162023736,0,1,0
0,0.022630876128606505,0.0021190207399229078,0.018577445161207715,0.033026569175480386,0.022630865414768043,0.0021190197367427534,0.018577436366331808,0.03302655354014544,1.5571239339180443e-05,1.4579983080866534e-06,1.2782264516485466e-05,2.2724025807085277e-05,1.5571239339180443e-05,1.4579983080866534e-06,1.2782264516485466e-05,2.2724025807085277e-05,-0.6639999999999945,78.32425586331716,-178.09,173.3,4.701888568537624,0.08755784318356508,4.585760777979283,4.8509422248048715,0.05432212530321486,0.028907773732779935,0.016670531257976885,0.11209097655281744,0.005925037275979799,0.025134195245274615,6.283736753154301e-08,0.11256039649847982,-0.7478987367569377,0.00911802094265787,-0.7701912587907678,-0.7402009564898782,-3.7985643145464194,10.232206745379532,-16.68853759765625,16.48101806640625,34.752105263157894,0.014355980733671565,34.73,34.77,0.08135593220338982,-0.0011578947368422862,0,1,0
0,0.020534678497761343,0.0012815340736984572,0.017201338112229368,0.023393819832631935,0.020534668776298202,0.0012815334669986098,0.01720132996882575,0.02339380875760302,1.412894453686595e-05,8.817632012774552e-07,1.1835430107856916e-05,1.6096184946685404e-05,1.412894453686595e-05,8.817632012774552e-07,1.1835430107856916e-05,1.6096184946685404e-05,3.4711186440677975,17.003694028446947,-34.74,35.31,4.528839707249256,0.032021441590318896,4.484973701237146,4.580117134711089,0.012652630467094729,0.0012930374447537812,0.010912964305154298,0.01499478872557621,0.010999940958647165,0.013491041065028304,1.5359324644137473e-05,0.04204509800214545,-0.7579022055330011,0.009154464266888287,-0.772672176169861,-0.7437702184485981,2.7868116416067137,0.7452219662191764,0.9124755859375,3.87420654296875,34.75888888888889,0.00993807990000062,34.75,34.77,0.16271186440677965,-0.0006604747162023736,0,1,0
0,0.016335420411341662,0.004350217650500425,0.010320802867337619,0.027522140979566984,0.016335412677878067,0.004350215591034015,0.010320797981295449,0.027522127950121197,1.1239632945964841e-05,2.9931797526762425e-06,7.101258064714148e-06,1.8936688172571062e-05,1.1239632945964841e-05,2.9931797526762425e-06,7.101258064714148e-06,1.8936688172571062e-05,-2.1663050847457668,61.98882837766605,-258.98,127.54,4.431353478152412,0.03432484786595055,4.369825723348137,4.4799611520121,0.011531038458648963,0.00275355597518517,0.005858515818364661,0.01462739177183152,0.004400569149337366,0.012747019434578,1.3947220703358632e-07,0.04371659670331868,-0.7850013053165703,0.006098694724701917,-0.7943936815910919,-0.7741575048652787,0.440963858706188,2.0477471856720197,-2.14080810546875,4.681396484375,34.75842105263158,0.009874559494366658,34.75,34.77,0.05423728813559322,-0.0012631578947370394,0,1,0
0,0.01260027270697183,0.00043813355304988177,0.011008856391826794,0.013761070489783492,0.012600266741790172,0.0004381333456300676,0.01100885118004848,0.013761063975060599,8.669653836830148e-06,3.0145904994113523e-07,7.574675269028425e-06,9.468344086285531e-06,8.669653836830148e-06,3.0145904994113523e-07,7.574675269028425e-06,9.468344086285531e-06,4.684319727891157,31.111639236237625,-73.92,53.55,4.330386506812231,0.02457580119652564,4.291158646904232,4.3664839482704805,0.0022276187204828117,0.001372587335918945,0.0006341326743077003,0.005201734312175154,2.9397581917062056e-07,7.561353503529816e-08,2.08110728310007e-07,3.9751735820929557e-07,-0.803994795338017,0.00557182514904719,-0.8137641527816336,-0.795338283632419,-0.0822833986495328,0.22345854188801334,-0.97503662109375,0.22125244140625,34.75444444444444,0.008314794192832278,34.75,34.77,0.16326530612244897,-0.0001651186790505934,0,1,0
0,0.01580663502204858,0.0022537297194927097,0.012384963440805145,0.019953552210186066,0.01580662753892096,0.0022537286525390453,0.01238495757755454,0.01995354276383787,1.0875800639652317e-05,1.550685208500845e-06,8.521509677656977e-06,1.372909892511402e-05,1.0875800639652317e-05,1.550685208500845e-06,8.521509677656977e-06,1.372909892511402e-05,-3.274779661016946,18.24860897050048,-57.99,28.94,4.239246851008476,0.030379458395096728,4.1877572408077315,4.288107667607949,0.0002276190253667313,0.00014874247551898987,5.964122915928016e-05,0.000559635367526259,6.663658048401017e-07,2.4363559874133827e-07,3.385509727768521e-07,1.150794725897613e-06,-0.8290525288701792,0.008683435120448018,-0.8433999137998578,-0.8151443524514226,0.1114847642316416,1.9182824764272222,-3.3416748046875,3.98712158203125,34.76999999999999,0.012977713690460725,34.75,34.79,0.16271186440677965,-0.0005614035087716436,0,1,0
