,net_acc_mean,net_acc_std,net_acc_min,net_acc_max,ACC_x_mean,ACC_x_std,ACC_x_min,ACC_x_max,ACC_y_mean,ACC_y_std,ACC_y_min,ACC_y_max,ACC_z_mean,ACC_z_std,ACC_z_min,ACC_z_max,BVP_mean,BVP_std,BVP_min,BVP_max,EDA_mean,EDA_std,EDA_min,EDA_max,EDA_phasic_mean,EDA_phasic_std,EDA_phasic_min,EDA_phasic_max,EDA_smna_mean,EDA_smna_std,EDA_smna_min,EDA_smna_max,EDA_tonic_mean,EDA_tonic_std,EDA_tonic_min,EDA_tonic_max,Resp_mean,Resp_std,Resp_min,Resp_max,TEMP_mean,TEMP_std,TEMP_min,TEMP_max,BVP_peak_freq,TEMP_slope,0,1,2
0,0.021488800890678915,0.004002417479005223,0.013073016965294318,0.031650462126502035,-0.021488790717518094,0.004002415584193277,-0.03165044714263938,-0.01307301077630757,-1.4785431190522744e-05,2.7538748454431597e-06,-2.177719139845672e-05,-8.994926881971256e-06,-1.4785431190522744e-05,2.7538748454431597e-06,-2.177719139845672e-05,-8.994926881971256e-06,-2.364169491525419,43.195636580151195,-103.89,100.21,0.29532979295576245,0.00741093901433009,0.2860137050342483,0.31273119992559617,4.517138890042382,1.758067104909013,2.31225904753651,8.212351416762575,0.9546505728041844,1.343660002839164,1.5408176068376633e-07,4.26107202167853,-5.271848204030912,1.643842929788942,-8.262866458324886,-2.910994915391732,0.45812242380146945,13.579894058488696,-16.09344482421875,26.89056396484375,32.02052631578947,0.013944885578412919,32.0,32.03,0.13559322033898305,0.00036842105263159284,0,1,0
0,0.020243751655888972,0.0032301748469759765,0.012384963440805145,0.026834087455077812,-0.02024374207215547,0.003230173317756714,-0.02683407475136817,-0.01238495757755454,-1.3928771487477902e-05,2.2225310838091927e-06,-1.8463270968256787e-05,-8.521509677656977e-06,-1.3928771487477902e-05,2.2225310838091927e-06,-1.8463270968256787e-05,-8.521509677656977e-06,1.2842176870748276,43.56173952263988,-117.07,79.06,0.2974949849869529,0.0017502540249596538,0.2924649913398564,0.2995789907554368,1.1779899083773928,0.4605964595678291,0.5426224013976303,2.107643595334544,0.2668253672142341,0.7121102536179519,4.7508759593029026e-08,2.743700470914206,-1.8455937177623676,0.42437839385490767,-2.736984154062749,-1.3647286638364853,0.8479125446480498,5.5398566751525635,-5.68084716796875,19.44122314453125,32.023333333333326,0.012472191289246943,32.0,32.03,0.16326530612244897,-0.000990712074303443,0,1,0
0,0.019256200665095667,0.006517143087629471,0.004128321146935048,0.042659318518328826,-0.019256191548885474,0.006517140002304003,-0.04265929832268786,-0.00412831919251818,-1.3249284191011713e-05,4.484139025306597e-06,-2.935186666748515e-05,-2.8405032258856597e-06,-1.3249284191011713e-05,4.484139025306597e-06,-2.935186666748515e-05,-2.8405032258856597e-06,0.9086101694915265,46.72140656005261,-111.99,126.23,0.2920837049361933,0.001472591158364607,0.2889156048845618,0.29456463425980295,0.5758953584181864,0.11836780003283269,0.3722162959343167,0.7126315954218186,0.536140075556464,0.8296726101145004,1.3787406061283036e-07,2.490118628247216,-1.4567450322540951,0.09698467677100356,-1.6313495121572412,-1.3466695582047783,0.5674570429118041,2.986632449313247,-4.144287109375,6.74896240234375,32.01736842105263,0.018593180771217774,31.99,32.03,0.13559322033898305,-0.0027368421052633425,0,1,0
0,0.015595879888421307,0.0006919430609834728,0.013761070489783492,0.017201338112229368,-0.015595872505068666,0.0006919427334059555,-0.01720132996882575,-0.013761063975060599,-1.0730789964456936e-05,4.7609341107388235e-07,-1.1835430107856916e-05,-9.468344086285531e-06,-1.0730789964456936e-05,4.7609341107388235e-07,-1.1835430107856916e-05,-9.468344086285531e-06,-2.850169491525427,39.14083250422522,-79.43,57.56,0.28761804708901717,0.0011040543327585518,0.2853668149901882,0.28957500269919395,0.6240158714088974,0.03470542282167242,0.5529180534099274,0.6695586893423942,0.46550072167326095,0.6640800388525858,2.1616401646440409e-07,1.914048284733628,-1.6798095303129679,0.01759445005298893,-1.69973495847063,-1.6467502454673293,-1.491336662725673,2.6082962558884626,-4.76226806640625,4.11529541015625,32.02555555555554,0.012570787221095024,31.99,32.03,0.16271186440677965,0.00132094943240463,0,1,0
0,0.016327324175716085,0.000821915569874905,0.013761070489783492,0.018577445161207715,-0.016327316446085417,0.0008219151807662099,-0.018577436366331808,-0.013761063975060599,-1.1234062307782006e-05,5.655213692298658e-07,-1.2782264516485466e-05,-9.468344086285531e-06,-1.1234062307782006e-05,5.655213692298658e-07,-1.2782264516485466e-05,-9.468344086285531e-06,3.78433898305085,36.91758477905873,-74.98,56.44,0.2876133741229774,0.0008388548486742019,0.2861203243609588,0.2889055573355627,0.47655460082835926,0.07909084207944311,0.3732575392102154,0.5673364970691049,0.27257211955645766,0.3329291505947006,4.328393323760338e-07,1.0496497340233324,-1.5351491864153333,0.061059803328023514,-1.6362589022633884,-1.4425940964806194,0.9806558133799061,2.370151259844682,-2.96478271484375,4.92706298828125,32.00666666666667,0.012472191289246948,32.0,32.03,0.13559322033898305,-0.0007430340557275823,0,1,0
0,0.023332971561758724,0.005148874300237973,0.014449124014272667,0.042659318518328826,-0.023332960515536433,0.005148871862674025,-0.04265929832268786,-0.01444911717381363,-1.6054318119092997e-05,3.5426977550823367e-06,-2.935186666748515e-05,-9.941761290599808e-06,-1.6054318119092997e-05,3.5426977550823367e-06,-2.935186666748515e-05,-9.941761290599808e-06,-9.70904761904762,71.27693155012926,-210.57,170.49,0.28846181384248387,0.0032433052754179854,0.2844961271749012,0.29640397760197407,0.41578928568675355,0.13112061694536062,0.2574045788648116,0.6254016777473375,0.4393007182699442,1.0832894532420634,4.368136075072471e-08,4.427639384129885,-1.4393452182738826,0.022701001426368193,-1.492261183121092,-1.4175253243072987,-0.342536867126938,2.2378795478313096,-3.36151123046875,4.48455810546875,32.03631578947367,0.015630781478859157,32.0,32.05,0.05442176870748299,0.001350877192982399,0,1,0
0,0.021432633256026682,0.0010194550333649938,0.018577445161207715,0.02476992688161029,-0.021432623109456664,0.001019454550737783,-0.02476991515510908,-0.018577436366331808,-1.4746784888129741e-05,7.014389646184643e-07,-1.7043019355313955e-05,-1.2782264516485466e-05,-1.4746784888129741e-05,7.014389646184643e-07,-1.7043019355313955e-05,-1.2782264516485466e-05,9.553288135593222,49.522560060550944,-100.96,103.87,0.28844820991913545,0.0016234109565591878,0.28488195243886905,0.2918107215428458,0.5733503815838956,0.022956381832860646,0.5379250147134458,0.6196416762177129,0.47026694631006166,0.7282118191142538,2.517744288610402e-07,2.662022706672074,-1.5994036284548483,0.058519883417798,-1.6903590110705178,-1.50273903850871,0.22237495424730452,3.077042196954089,-4.7637939453125,5.48858642578125,32.06333333333333,0.01632993161855707,32.05,32.09,0.13559322033898305,0.0013209494324047473,0,1,0
0,0.02520228483956631,0.004626181071532189,0.015825231063251018,0.03715489032241543,-0.025202272908379564,0.004626178881420031,-0.037154872732663616,-0.01582522357131969,-1.734050449045739e-05,3.183057177364768e-06,-2.5564529032970932e-05,-1.088859569922836e-05,-1.734050449045739e-05,3.183057177364768e-06,-2.5564529032970932e-05,-1.088859569922836e-05,-3.64820338983051,34.549297373109944,-79.07,49.84,0.28611483056476816,0.001647351087036528,0.2822857724600412,0.287564613191719,0.6025550181206744,0.05749347055671596,0.47819789078020375,0.6745135288654359,0.3522257390496464,0.6512458472568986,1.2564784945823249e-07,2.544788989335986,-1.7211924832206695,0.011842767236991594,-1.7346954994901433,-1.6985699753122145,-0.4939360890731622,2.412098571800208,-3.68194580078125,4.76837158203125,32.06684210526315,0.007292845505554309,32.05,32.07,0.13559322033898305,-0.0002807017543860088,0,1,0
0,0.032352557559654244,0.001147605715621859,0.029586301553034506,0.035090729748947905,-0.03235254224340779,0.0011476051723259548,-0.03509071313640453,-0.029586287546380288,-2.2260270178369234e-05,7.89613409724397e-07,-2.4144277420028106e-05,-2.035693978551389e-05,-2.2260270178369234e-05,7.89613409724397e-07,-2.4144277420028106e-05,-2.035693978551389e-05,3.164813559322034,38.12855883983197,-83.81,71.64,0.2852209444943842,0.0013824553537833243,0.283166984267961,0.28760603532320034,0.45625324524488126,0.05805448028860523,0.3605195794143794,0.5358199359869849,0.3014127094937018,0.46872137246249346,7.595518347613961e-08,1.4025159726635188,-1.6111559947882863,0.05275573119519734,-1.6921511874172137,-1.5221930359571483,1.5317466515692872,1.965437843009731,-2.886962890625,5.73883056640625,32.07222222222222,0.011331154474652405,32.05,32.09,0.16271186440677965,0.0004953560371517803,0,1,0
0,0.034000141509451465,0.0004599424747353098,0.033026569175480386,0.035090729748947905,-0.03400012541321092,0.00045994225699078317,-0.03509071313640453,-0.03302655354014544,-2.3393895048563942e-05,3.1646474116419735e-07,-2.4144277420028106e-05,-2.2724025807085277e-05,-2.3393895048563942e-05,3.1646474116419735e-07,-2.4144277420028106e-05,-2.2724025807085277e-05,-2.0096938775510194,28.060050273206233,-62.26,34.41,0.28721729557168413,0.0014877533797004582,0.2836885726066122,0.2894261308816781,0.37092991048633883,0.022856856112679,0.3350910744459834,0.4163176839607079,0.2526260779215818,0.4827131328785416,2.2904092400466425e-07,1.4908606905216049,-1.4424236775523571,0.03653023784969536,-1.5117674763105404,-1.3945747683543575,-1.1674857317070215,2.690393727006706,-4.510498046875,4.30450439453125,32.08111111111112,0.009938079900000616,32.07,32.09,0.13605442176870747,-0.0003302373581011868,0,1,0
0,0.0317992304561213,0.004435750314455011,0.022017712783653588,0.042659318518328826,-0.03179921540182925,0.004435748214495989,-0.04265929832268786,-0.02201770236009696,-2.187955187506521e-05,3.0520307478470063e-06,-2.935186666748515e-05,-1.514935053805685e-05,-2.187955187506521e-05,3.0520307478470063e-06,-2.935186666748515e-05,-1.514935053805685e-05,-0.6253898305084723,39.05314426587726,-87.57,90.4,0.28799274079761783,0.0008283152966510757,0.28665033621142627,0.2893484123395152,0.34526732622541556,0.02488624593991802,0.2853779415445157,0.37290633431636466,0.29356108922894686,0.5288524360728821,2.9362477693695155e-07,1.7608712291043407,-1.3884086734774805,0.003838671274904331,-1.3971691801090285,-1.3842158473371964,0.6741095417486527,2.855827619577674,-3.955078125,5.07354736328125,32.08578947368423,0.008153649149911627,32.07,32.09,0.16271186440677965,0.0007719298245615242,0,1,0
0,0.03187513266511072,0.004044118451290176,0.01926549868569689,0.04472347909179635,-0.03187511757488526,0.004044116536736281,-0.04472345791894695,-0.01926548956508484,-2.1931776608028723e-05,2.7825673192314246e-06,-3.0772118280427976e-05,-1.3255681720799745e-05,-2.1931776608028723e-05,2.7825673192314246e-06,-3.0772118280427976e-05,-1.3255681720799745e-05,-2.0179661016949146,59.178872368830326,-117.63,161.67,0.2886761601303584,0.0029495975716046195,0.28498440506837563,0.29411908373461504,0.3982792420936029,0.11628507376321681,0.2536206954417773,0.5772302971651044,0.29918582041180375,0.6918711751795134,8.095284620424081e-08,2.370623430495823,-1.4153842022723557,0.00902523830344627,-1.42748135025349,-1.399171942333228,-0.6671646312272146,2.9157207161606666,-5.303955078125,4.93011474609375,32.07666666666668,0.01632993161855707,32.05,32.09,0.08135593220338982,-0.0006604747162023736,0,1,0
0,0.02787546576241275,0.000441631509404141,0.026834087455077812,0.029586301553034506,-0.027875452565697012,0.0004416313003283343,-0.029586287546380288,-0.02683407475136817,-1.917979430451623e-05,3.0386582886037063e-07,-2.035693978551389e-05,-1.8463270968256787e-05,-1.917979430451623e-05,3.0386582886037063e-07,-2.035693978551389e-05,-1.8463270968256787e-05,3.5999661016949145,27.68828813774609,-56.93,44.11,0.2885219096422941,0.0009118881502744942,0.28715041287497955,0.29059374707256086,0.4042051844221078,0.029342402512353805,0.33925423177421665,0.44843144612875313,0.3376008409398001,0.6279485367917998,1.6723197227008768e-07,1.8978321527485607,-1.4257245485686973,0.0034202944647769183,-1.4289307998024217,-1.4180981627948441,0.1298984877820642,2.0062619547943936,-2.88848876953125,4.00543212890625,32.09000000000001,0.012977713690460725,32.07,32.11,0.13559322033898305,0.0005614035087721423,0,1,0
0,0.027812340425269876,0.0003925600235875643,0.026834087455077812,0.029586301553034506,-0.027812327258438727,0.00039255983774302676,-0.029586287546380288,-0.02683407475136817,-1.9136360734934905e-05,2.701020520610602e-07,-2.035693978551389e-05,-1.8463270968256787e-05,-1.9136360734934905e-05,2.701020520610602e-07,-2.035693978551389e-05,-1.8463270968256787e-05,0.2476190476190457,29.531340917267578,-63.74,33.8,0.2872358853282887,0.001011736433945641,0.28445202613305975,0.28879146706329595,0.3291220833200698,0.02571231999729403,0.27066382976623204,0.3662291214341827,0.20816695076946656,0.37089725365514753,1.573422867551244e-07,1.2703929590304455,-1.4020042117259115,0.009480253617666143,-1.4166815415051124,-1.385910618361983,0.6476556101152974,1.4549649862521115,-2.18658447265625,2.63519287109375,32.0988888888889,0.016629588385661604,32.09,32.13,0.13605442176870747,-0.0003302373581011281,0,1,0
0,0.032712966548672354,0.0020761879888290626,0.023393819832631935,0.036466836797926255,-0.03271295106180222,0.0020761870059266487,-0.03646681953391059,-0.02339380875760302,-2.2508250618724326e-05,1.4285271106373053e-06,-2.5091111828656657e-05,-1.6096184946685404e-05,-2.2508250618724326e-05,1.4285271106373053e-06,-2.5091111828656657e-05,-1.6096184946685404e-05,-2.280576271186441,32.12796030293914,-71.04,61.43,0.2874949829016861,0.0009955189583817302,0.2858938262936505,0.289668906646605,0.30427806484362463,0.03224458159378597,0.2563806794328352,0.36514681968068585,0.2219091552768219,0.49888274351964657,1.7307645538977567e-07,1.8838494514629396,-1.367697155810842,0.009283695455613007,-1.3839328210487198,-1.3538516395934899,-0.11252410358589873,2.209946085283319,-3.80706787109375,3.9642333984375,32.097368421052636,0.016170833153406908,32.07,32.11,0.13559322033898305,0.00035087719298236136,0,1,0
0,0.03362629150425815,0.001244988987191011,0.031650462126502035,0.03715489032241543,-0.03362627558500452,0.0012449883977922252,-0.037154872732663616,-0.03165044714263938,-2.313666647841328e-05,8.566182495113502e-07,-2.5564529032970932e-05,-2.177719139845672e-05,-2.313666647841328e-05,8.566182495113502e-07,-2.5564529032970932e-05,-2.177719139845672e-05,1.1258983050847478,34.87630786014711,-83.84,47.85,0.2872101814849248,0.0011071873473543392,0.2851895802447277,0.28883348216696875,0.27494859247792675,0.032049743251295615,0.2117654097589141,0.32164740264848174,0.17378017085080744,0.41240581016062156,1.023277516054577e-07,1.6347053919048156,-1.3493435109601664,0.0015876037764271007,-1.3527642899545402,-1.3475819571074232,-0.4189051273924721,2.629242374874982,-4.2724609375,4.45098876953125,32.08666666666667,0.010000000000000642,32.07,32.11,0.13559322033898305,-0.0006811145510835732,0,1,0
0,0.03391589005747322,0.001593466214900383,0.027522140979566984,0.03853099737139378,-0.03391587400111868,0.001593465460526598,-0.03853097913016968,-0.027522127950121197,-2.3335925594974482e-05,1.0963890072177976e-06,-2.651136344159949e-05,-1.8936688172571062e-05,-2.3335925594974482e-05,1.0963890072177976e-06,-2.651136344159949e-05,-1.8936688172571062e-05,0.10874149659863923,32.74451138690558,-71.5,58.31,0.28638356434812756,0.001010538081569145,0.28438046786570476,0.28806501180096056,0.2637039787628414,0.04141213513058466,0.19182746516219673,0.3325921870370675,0.2531452500268285,0.37784456055470994,1.5686504806211587e-07,1.2224718988558845,-1.3702242076309794,0.011978366694542508,-1.3913584675765274,-1.3529318622832627,0.9022203923454948,2.1530729995746465,-2.88238525390625,3.68804931640625,32.09444444444446,0.008314794192829324,32.09,32.11,0.13605442176870747,-0.0006604747162021389,0,1,0
0,0.033204433351879004,0.001135244870822872,0.029586301553034506,0.03577878327343708,-0.03320441763234006,0.0011352443333788006,-0.03577876633515756,-0.029586287546380288,-2.2846405764663105e-05,7.811084949475364e-07,-2.461769462434238e-05,-2.035693978551389e-05,-2.2846405764663105e-05,7.811084949475364e-07,-2.461769462434238e-05,-2.035693978551389e-05,0.6916271186440688,26.83991485114831,-64.05,35.3,0.2863614734138459,0.0012774027531881889,0.28311202315955525,0.2880094377519481,0.3070364138355826,0.03489552628024105,0.25674998645898656,0.36025916480069436,0.2470957430083626,0.3214053185718412,1.519892913748322e-07,0.9256603656364133,-1.4156174004653976,0.01187569327263,-1.432060671498249,-1.3940976888576126,-0.5370771914498682,2.578077311799033,-4.010009765625,4.24652099609375,32.08578947368423,0.008153649149911627,32.07,32.09,0.13559322033898305,0.0009122807017545285,0,1,0
0,0.033389191978927396,0.0011603169751042439,0.029586301553034506,0.036466836797926255,-0.03338917617192061,0.0011603164257906157,-0.03646681953391059,-0.029586287546380288,-2.2973529468818427e-05,7.983594283309128e-07,-2.5091111828656657e-05,-2.035693978551389e-05,-2.2973529468818427e-05,7.983594283309128e-07,-2.5091111828656657e-05,-2.035693978551389e-05,-0.9595254237288141,30.59635116904502,-75.3,61.72,0.286600057138677,0.0014298797959006115,0.2832631629574817,0.2895326490707932,0.3323507490962012,0.02370202412451192,0.2794882378878389,0.3723260483285997,0.2994277634039451,0.5877050456270596,6.422615328460779e-08,1.946198838907157,-1.4301061902426915,0.004121849790194686,-1.4342179059601483,-1.4215759771574097,0.09718423595422548,2.3738818284128564,-3.50189208984375,3.83453369140625,32.09444444444446,0.008314794192829324,32.09,32.11,0.13559322033898305,-0.0008255933952526737,0,1,0
0,0.033106139991237675,0.0009377173101089586,0.03096240860201286,0.03577878327343708,-0.03310612431823248,0.0009377168661777659,-0.03577876633515756,-0.03096239394388635,-2.277877473547533e-05,6.45199089298279e-07,-2.461769462434238e-05,-2.1303774194142445e-05,-2.277877473547533e-05,6.45199089298279e-07,-2.461769462434238e-05,-2.1303774194142445e-05,-1.3815593220338984,30.575809408065478,-69.84,35.51,0.2858744547283931,0.0015095516678452516,0.28342557527475365,0.28809459727068537,0.2875374028590225,0.04685156382553045,0.21304870637330614,0.36568801653049476,0.1516687493757199,0.3250395646027136,6.584547129762086e-08,1.3383201815339598,-1.4159937164187184,0.002834774085975887,-1.422401525151182,-1.4128271709973377,0.41317430974236197,2.2442221845273487,-3.1951904296875,4.10003662109375,32.09315789473686,0.007292845505551717,32.09,32.11,0.13559322033898305,0.0008421052631577272,0,1,0
0,0.03341974261804568,0.0008025619289152629,0.031650462126502035,0.035090729748947905,-0.03341972679657577,0.0008025615489689065,-0.03509071313640453,-0.03165044714263938,-2.2994549923836297e-05,5.522050409642426e-07,-2.4144277420028106e-05,-2.177719139845672e-05,-2.2994549923836297e-05,5.522050409642426e-07,-2.4144277420028106e-05,-2.177719139845672e-05,2.095068027210883,24.905597692565895,-60.48,39.63,0.2864251100657193,0.000991572320659952,0.2846924452660461,0.2878535734931375,0.3680040504465516,0.026776114614495958,0.28270099591402964,0.39504915008942343,0.3791572327680146,0.5301066328922631,5.307709933788374e-07,1.6297422740431502,-1.4715047396769598,0.03489777606216167,-1.5374234643796219,-1.425090384086846,-0.5693288949819711,2.5462051262730734,-3.7628173828125,4.3609619140625,32.091111111111125,0.014098419489387917,32.07,32.11,0.13605442176870747,-0.0016718266253867818,0,1,0
0,0.033570503380650915,0.0010125348055880705,0.03096240860201286,0.03577878327343708,-0.033570487487808255,0.0010125343262370123,-0.03577876633515756,-0.03096239394388635,-2.3098281299685065e-05,6.966774820146217e-07,-2.461769462434238e-05,-2.1303774194142445e-05,-2.3098281299685065e-05,6.966774820146217e-07,-2.461769462434238e-05,-2.1303774194142445e-05,0.7153559322033888,27.57059119372702,-68.92,34.46,0.2844902915799764,0.0009959061927505895,0.28262372435928973,0.2859151174685655,0.4639659595456608,0.07270104934501764,0.347055249481579,0.5630866189601664,0.3270506280975948,0.5661717629375376,2.5452853336105363e-07,1.9934405025943613,-1.6488476720151934,0.06358222640773957,-1.754776699566391,-1.54747000320321,0.23943851366824015,2.377967717551289,-3.55987548828125,4.27093505859375,32.08578947368424,0.008153649149911625,32.07,32.09,0.16271186440677965,-0.001052631578947533,0,1,0
0,0.03354611979601305,0.0006450113717460368,0.031650462126502035,0.034402676224458736,-0.03354610391471401,0.0006450110663867726,-0.0344026599376515,-0.03165044714263938,-2.3081504104220537e-05,4.4380192745852227e-07,-2.367086021571383e-05,-2.177719139845672e-05,-2.3081504104220537e-05,4.4380192745852227e-07,-2.367086021571383e-05,-2.177719139845672e-05,-1.9818644067796634,29.57791274391584,-70.39,35.79,0.28502424004272836,0.001948456810260514,0.28126608211963244,0.2888629752566665,0.6975192919721525,0.08214583184454585,0.4851519088133477,0.819459195890099,0.7267228508647657,1.101981206272438,7.649430067147023e-08,3.1164256190190596,-1.8564594809810009,0.05171941980173873,-1.9347258801034948,-1.766518842626157,0.6173361394481558,2.209710600178811,-2.72674560546875,3.887939453125,32.09000000000001,0.013333333333333048,32.07,32.11,0.13559322033898305,-0.0013209494324045712,0,1,0
0,0.02218507715447526,0.01323923209268233,0.0,0.05022790728770975,-0.022138576570688715,0.013316820574333905,-0.050227883508971186,0.0034402659937651497,-1.5232518425301256e-05,9.162680993390603e-06,-3.455945591494219e-05,2.3670860215713828e-06,-1.5232518425301256e-05,9.162680993390603e-06,-3.455945591494219e-05,2.3670860215713828e-06,5.196474576271184,62.453354768248225,-155.15,174.4,0.28517786620659774,0.0026290883240809152,0.28058383021202404,0.29134099100762556,0.8303008298241358,0.06960278553720912,0.6827307763596392,0.9637880947861204,0.5146585766581296,0.9617586823334258,3.835166495491649e-08,2.897232349120875,-1.9835122366799607,0.020462823520948976,-2.0066406657555884,-1.9419841981448074,1.717050276000863,3.710823068087213,-3.90472412109375,7.83233642578125,32.076666666666675,0.009428090415822106,32.07,32.09,0.08135593220338982,-0.0008255933952529671,0,1,0
0,0.01496399399858429,0.006714639804020981,0.0,0.025457980406099465,-0.014926541842336143,0.006797469971325978,-0.02545796835386211,0.00275221279501212,-1.0270254860940332e-05,4.677020957198499e-06,-1.7516436559628233e-05,1.8936688172571063e-06,-1.0270254860940332e-05,4.677020957198499e-06,-1.7516436559628233e-05,1.8936688172571063e-06,-2.4793877551020365,64.3583096160236,-196.79,159.08,0.28045763881986785,0.0007907023097328978,0.2790002139993497,0.2820181387727777,0.6336504919691555,0.03241672237932794,0.5672027042683323,0.6757815787975668,0.5051866916339084,0.7057499001338188,5.233600628429258e-07,2.1660935934341445,-1.976145439017842,0.02751299286196467,-2.006593256511501,-1.9189704112792731,-3.027706175811531,4.555163433673225,-8.64105224609375,5.15899658203125,32.094210526315806,0.00815364914990873,32.09,32.11,0.16326530612244897,7.017543859647726e-05,0,1,0
0,0.03624216625931748,0.009100911882974455,0.013073016965294318,0.04541153261628553,-0.03624214910166473,0.009100907574449254,-0.045411511117699976,-0.01307301077630757,-2.4936526619084674e-05,6.261908568155477e-06,-3.124553548474225e-05,-8.994926881971256e-06,-2.4936526619084674e-05,6.261908568155477e-06,-3.124553548474225e-05,-8.994926881971256e-06,-5.052406779661028,33.90774409778143,-85.6,42.78,0.28415267955463186,0.0011101039149992095,0.2821287146133068,0.2862538611325055,0.6137079558658073,0.07916825480667404,0.49373795882681415,0.7267167105207595,0.40409334863406077,0.6131318416578622,1.8195827600209213e-07,1.581660878347611,-1.8098955156401155,0.06395162418110945,-1.9092516744865837,-1.7015570432240599,4.686386955845922,5.682128920502396,-6.91375732421875,14.16778564453125,32.104444444444454,0.008958064164774385,32.09,32.11,0.16271186440677965,-0.0006398348813208221,0,1,0
0,0.02534175514858438,0.005767986817371901,0.013073016965294318,0.053668174910155624,-0.02534174315137005,0.00576798408670965,-0.05366814950273634,-0.01307301077630757,-1.743646743727784e-05,3.968679901217147e-06,-3.6926541936513574e-05,-8.994926881971256e-06,-1.743646743727784e-05,3.968679901217147e-06,-3.6926541936513574e-05,-8.994926881971256e-06,3.6351186440677985,84.40067602691039,-240.0,254.02,0.28404847079568213,0.0017823437395741587,0.28086195445716944,0.28780819452856654,0.37786855658359486,0.09017719662438617,0.226976470431541,0.4914686721243391,0.19048236114302916,0.4812580263344966,1.003539065180803e-07,2.0867960941738897,-1.577522037380301,0.063994651093988,-1.688271799572858,-1.4803240168830232,-6.5034804805632564,4.742536314647079,-13.54217529296875,5.71136474609375,32.09736842105264,0.009647527778852482,32.09,32.11,0.08135593220338982,-0.0009122807017542045,0,1,0
0,0.024755884972947204,0.0017664922014579273,0.018577445161207715,0.028898248028545334,-0.02475587325309372,0.0017664913651707212,-0.02889823434762726,-0.018577436366331808,-1.703335777971572e-05,1.2154400343753211e-06,-1.9883522581199616e-05,-1.2782264516485466e-05,-1.703335777971572e-05,1.2154400343753211e-06,-1.9883522581199616e-05,-1.2782264516485466e-05,-0.15467796610169457,18.07853548369661,-46.62,39.02,0.28173351630953547,0.0007185909553667081,0.28034089388680694,0.2835257243913529,0.1328986327935768,0.04413649281087276,0.07598812292426835,0.21540650809466058,0.04105964948397989,0.0914952083896905,1.358353456382133e-07,0.28820679823732975,-1.4242182261895988,0.02392452700617101,-1.472013820161544,-1.395144011946286,2.65531430435299,2.8900791634656144,-1.83868408203125,7.57598876953125,32.10333333333334,0.01632993161855385,32.09,32.13,0.16271186440677965,0.0004953560371518975,0,1,0
0,0.029717359367222935,0.0031691882396513316,0.021329659259164413,0.04678763966526387,-0.02971734529852371,0.003169186739304163,-0.04678761751520604,-0.02132964916134393,-2.0447114491097564e-05,2.180569073423914e-06,-3.219236989337081e-05,-1.4675933333742575e-05,-2.0447114491097564e-05,2.180569073423914e-06,-3.219236989337081e-05,-1.4675933333742575e-05,-0.017619047619047985,38.50531570924307,-68.72,161.3,0.2817493964662485,0.0009385896103497221,0.2800607553725174,0.2833581705946564,0.11767858291161254,0.03903740377230978,0.0740276392726211,0.17849596309683916,0.1131566728138848,0.24024132070070436,9.910333287344031e-08,0.7256258788314498,-1.4072186079153794,0.013768154952979872,-1.4368384416981497,-1.39367858910733,0.6322084526270259,0.8793103258574722,-1.8524169921875,2.07061767578125,32.10333333333334,0.009428090415818756,32.09,32.11,0.13605442176870747,0.0008255933952526737,0,1,0
0,0.029112102502373036,0.0008792899705098306,0.026834087455077812,0.03096240860201286,-0.029112088720212644,0.0008792895542391269,-0.03096239394388635,-0.02683407475136817,-2.0030665766324354e-05,6.049979904243573e-07,-2.1303774194142445e-05,-1.8463270968256787e-05,-2.0030665766324354e-05,6.049979904243573e-07,-2.1303774194142445e-05,-1.8463270968256787e-05,-5.3615593220339,34.73824763994204,-98.02,45.25,0.2807583393959884,0.00054905031422972,0.2797859648029958,0.28167298428216614,0.17929584006928834,0.03485422842459509,0.1203740897906451,0.23130500440348148,0.1811305987053988,0.3105841423991404,4.927339603000291e-07,1.0633972757275352,-1.5080187300201535,0.04186006637908293,-1.5773912229338907,-1.442580120938871,0.013327302767088631,2.5236619214639124,-4.37164306640625,4.75921630859375,32.11000000000001,7.105427357601002e-15,32.11,32.11,0.13559322033898305,0.0,0,1,0
0,0.028771870850577877,0.0006113204781325639,0.026834087455077812,0.030274355077523685,-0.02877185722948896,0.0006113201887231379,-0.03027434074513332,-0.02683407475136817,-1.979656840081537e-05,4.206208113132611e-07,-2.083035698982817e-05,-1.8463270968256787e-05,-1.979656840081537e-05,4.206208113132611e-07,-2.083035698982817e-05,-1.8463270968256787e-05,6.3114576271186476,54.9458496658523,-140.17,87.31,0.28011798396134996,0.0016882844768829537,0.2768849090299874,0.28259902155701144,0.26727901312622065,0.04624966763297005,0.19582088985262402,0.33358644646128705,0.23521970298562758,0.5818040928616853,5.3146492540179224e-08,2.268033588833208,-1.6248387220247145,0.01899981052367098,-1.6434505987571475,-1.584567965256429,-0.09395257308917351,2.3486659735811766,-3.619384765625,4.412841796875,32.10555555555557,0.01571348402636705,32.09,32.13,0.13559322033898305,-0.0016511867905056993,0,1,0
0,0.029302711924697727,0.00045195936523270404,0.026834087455077812,0.030274355077523685,-0.029302698052299656,0.00045195915126751754,-0.03027434074513332,-0.02683407475136817,-2.0161815126978972e-05,3.1097193973531987e-07,-2.083035698982817e-05,-1.8463270968256787e-05,-2.0161815126978972e-05,3.1097193973531987e-07,-2.083035698982817e-05,-1.8463270968256787e-05,1.1559322033898314,43.84092856397245,-94.86,53.39,0.2799727915713278,0.00034947593941107754,0.27916135348699844,0.280582940686667,0.2160422359470439,0.04583370206987196,0.13393926621775834,0.2746909698392567,0.0893397905771699,0.17034454872978497,2.037132236232253e-07,0.5325776033263643,-1.577159890356116,0.04261192002616165,-1.6384862481567106,-1.5119138374866086,0.7093240250428912,2.0582210204970255,-3.08990478515625,4.63714599609375,32.11842105263158,0.00987455949436666,32.11,32.13,0.13559322033898305,0.00042105263157901315,0,1,0
0,0.029253976381342462,0.0012647768500137313,0.025457980406099465,0.033026569175480386,-0.02925396253201658,0.0012647762512470366,-0.03302655354014544,-0.02545796835386211,-2.0128282496355286e-05,8.702333453773891e-07,-2.2724025807085277e-05,-1.7516436559628233e-05,-2.0128282496355286e-05,8.702333453773891e-07,-2.2724025807085277e-05,-1.7516436559628233e-05,-4.762108843537413,42.848331510571725,-98.0,54.29,0.2806565146172833,0.0009163287099912727,0.2789105214329784,0.2823709927054394,0.2808492040027146,0.12116646619612152,0.12113536251660482,0.5437872847095354,0.4957932477321178,0.7526481111647781,3.5637986517400577e-07,2.5222722182378394,-1.6133629399698692,0.10930529417724608,-1.8579164185796397,-1.508597120366724,-0.17084874231229644,3.09982794916607,-4.46014404296875,5.70831298828125,32.10555555555556,0.008314794192829322,32.09,32.11,0.13605442176870747,0.0004953560371516042,0,1,0
0,0.031510043039871594,0.0005259002557445627,0.030274355077523685,0.03371462269996956,-0.031510028122485725,0.0005259000067745108,-0.03371460673889847,-0.03027434074513332,-2.1680575642474198e-05,3.6184718188544236e-07,-2.3197443011399553e-05,-2.083035698982817e-05,-2.1680575642474198e-05,3.6184718188544236e-07,-2.3197443011399553e-05,-2.083035698982817e-05,2.551559322033897,34.37090582251273,-75.6,48.37,0.2805854359966842,0.0011019109052177512,0.27844331874384043,0.2825107259591001,1.3650205614874764,0.5589048572187999,0.6215628122774777,2.426614616112639,1.956516554874326,2.6906001495445495,6.600615964913459e-06,8.703529505597288,-2.7022746008287952,0.5658011562217793,-3.7432424896159073,-1.9112847307153102,-0.05215438956362438,2.539711329769214,-3.9581298828125,4.35943603515625,32.10052631578949,0.01637510440642484,32.07,32.11,0.13559322033898305,-0.0021403508771928805,0,1,0
0,0.03366813259696351,0.0029998619309637327,0.029586301553034506,0.04472347909179635,-0.03366811665790164,0.0029998605107784933,-0.04472345791894695,-0.029586287546380288,-2.316545536245939e-05,2.0640636202540405e-06,-3.0772118280427976e-05,-2.035693978551389e-05,-2.316545536245939e-05,2.0640636202540405e-06,-3.0772118280427976e-05,-2.035693978551389e-05,4.771898305084743,50.65223144437709,-116.27,180.73,0.2912302987697096,0.0213202549828289,0.28009839712820983,0.34692857420133233,4.1709523448925205,1.3814631997725721,2.5399086565662747,6.9794837234640354,4.857668728577975,9.091814817578824,1.1501356311782729e-08,40.07185707878605,-5.1195724991525005,0.7516567066393018,-6.324397971427396,-3.8837224870137086,0.9768948509128723,3.5236545558863352,-3.72772216796875,7.34710693359375,32.09000000000001,0.013333333333333048,32.07,32.11,0.13559322033898305,0.0013209494324045125,0,1,0
0,0.029792249546759162,0.006010870046300636,0.016513284587740193,0.042659318518328826,-0.02979223544260569,0.00601086720065336,-0.04265929832268786,-0.01651327677007272,-2.0498642894288243e-05,4.135796404689217e-06,-2.935186666748515e-05,-1.1362012903542639e-05,-2.0498642894288243e-05,4.135796404689217e-06,-2.935186666748515e-05,-1.1362012903542639e-05,4.9806802721088514,89.0324285005598,-156.15,256.61,0.28551949202885185,0.009179191288457355,0.27598993606898026,0.3141308312448966,6.168140768456394,0.3383099454562399,5.543378617322367,6.73841851425296,4.844029350474931,5.356213280523327,2.186175152019132e-08,17.490118448706298,-7.272621896295484,0.42626987098818486,-7.817064665309924,-6.4525594015262975,-0.2728033894049027,5.0628448551260945,-6.43157958984375,9.49249267578125,32.09,0.018856180831640864,32.07,32.11,0.027210884353741496,0.0,0,1,0
0,0.01798300436113883,0.0028131363546191786,0.007568588769380921,0.022705766308142764,-0.017982995847681243,0.002813135022832976,-0.022705755558849988,-0.00756858518628333,-1.2373257816159541e-05,1.935586550984406e-06,-1.5622767742371126e-05,-5.2075892474570424e-06,-1.2373257816159541e-05,1.935586550984406e-06,-1.5622767742371126e-05,-5.2075892474570424e-06,-8.32406779661017,44.3567144829756,-127.11,102.46,0.28384374410468116,0.0013581712168011881,0.28090564037285726,0.2858449352485314,6.544819799104996,0.10342785760786363,6.276595434488758,6.6887848074853595,4.75323628973556,2.3716219204902016,0.5709682584757445,9.23225235661053,-7.753061853360274,0.13797449412928672,-7.881880838168592,-7.442944707277655,-3.3623309644221075,3.7737301740053217,-8.89129638671875,4.364013671875,32.09000000000001,0.012977713690460725,32.07,32.11,0.05423728813559322,0.0005614035087720424,0,1,0
0,0.02826133361736275,0.004563393773924669,0.015825231063251018,0.039219050895882956,-0.02826132023797076,0.004563391613537073,-0.03921903232892271,-0.01582522357131969,-1.94452917907195e-05,3.139856196856936e-06,-2.6984780645913764e-05,-1.088859569922836e-05,-1.94452917907195e-05,3.139856196856936e-06,-2.6984780645913764e-05,-1.088859569922836e-05,1.4127796610169536,45.373773486553645,-99.01,103.78,0.29207080439581007,0.016391343765071505,0.2730151993905488,0.330991600794608,5.890132546606399,0.7857030786719883,4.64283601900059,7.127862229023228,3.6484818644416745,7.7795736345274245,1.8462287698639557e-08,31.98987900629419,-6.770697970177665,0.3984309358084349,-7.384430679744161,-6.090584610622447,1.2954735585779942,2.1210744354412614,-1.580810546875,5.95245361328125,32.09222222222225,0.011331154474649928,32.07,32.11,0.16271186440677965,-0.0011558307533539778,0,1,0
0,0.028926331845871338,0.0005494915418677158,0.028210194504056162,0.030274355077523685,-0.028926318151658015,0.0005494912817291519,-0.03027434074513332,-0.02821018114887423,-1.9902845732396133e-05,3.7807923408064456e-07,-2.083035698982817e-05,-1.941010537688534e-05,-1.9902845732396133e-05,3.7807923408064456e-07,-2.083035698982817e-05,-1.941010537688534e-05,-4.691762711864405,23.426861931203984,-55.63,32.1,0.27667066897321696,0.0009595442698670826,0.27426070985072043,0.278311456440113,3.7666993280074315,0.43199834598599823,3.110095049498649,4.448950789274379,2.3993701830064937,1.7001430912236681,2.2407717779060476e-06,7.8923773135486925,-5.257892536722269,0.444607539587097,-6.0054371783394895,-4.55421734906542,1.2353854498851389,2.7289831246239484,-3.05328369140625,6.19049072265625,32.0784210526316,0.00987455949436666,32.07,32.09,0.16271186440677965,0.0001403508771930044,0,1,0
0,0.02778893724416482,0.0017971814622167628,0.02476992688161029,0.034402676224458736,-0.02778892408841317,0.0017971806114007432,-0.0344026599376515,-0.02476991515510908,-1.9120258108937818e-05,1.236555868411207e-06,-2.367086021571383e-05,-1.7043019355313955e-05,-1.9120258108937818e-05,1.236555868411207e-06,-2.367086021571383e-05,-1.7043019355313955e-05,2.750680272108842,28.884347246627556,-61.59,43.6,0.27538516582713,0.0011468500210298522,0.273152714651157,0.27702386957909153,2.4905090285496336,0.23790183136566262,2.1698657760152957,3.0074620838943185,1.6485708226140992,1.9674161066952882,8.088855594223787e-07,6.124602591312147,-4.033700979648198,0.23942477925924013,-4.48541343884613,-3.71758878995462,-0.015540395126153458,2.4807714131803484,-3.25164794921875,4.86602783203125,32.078888888888905,0.00993807990000062,32.07,32.09,0.13605442176870747,0.0006604747162023736,0,1,0
0,0.026443570589827183,0.004998341216309421,0.0027522140979566985,0.03577878327343708,-0.026406366006197356,0.005191241572142727,-0.03577876633515756,0.00275221279501212,-1.816898459800737e-05,3.5718503692125107e-06,-2.461769462434238e-05,1.8936688172571063e-06,-1.816898459800737e-05,3.5718503692125107e-06,-2.461769462434238e-05,1.8936688172571063e-06,0.6064745762711887,30.463068406251036,-65.87,76.86,0.27525631676292894,0.003426146772975743,0.2626321263219104,0.27844876918244693,2.1746371649956977,0.11037037720421149,1.8883084505695733,2.367762688740073,1.3033262034106452,1.829938736019288,3.375377133352231e-08,5.936961022340434,-3.72778881888071,0.054701390014049216,-3.847381757357848,-3.6743572741473147,0.7598427329998159,3.1949340555872423,-6.6497802734375,5.65338134765625,32.06578947368421,0.008153649149911627,32.05,32.07,0.13559322033898305,-0.0007719298245615242,0,1,0
0,0.021961545149001376,0.002319820775120133,0.01926549868569689,0.03096240860201286,-0.021961534752035466,0.002319819676877845,-0.03096239394388635,-0.01926548956508484,-1.511070423566386e-05,1.59615934920602e-06,-2.1303774194142445e-05,-1.3255681720799745e-05,-1.511070423566386e-05,1.59615934920602e-06,-2.1303774194142445e-05,-1.3255681720799745e-05,-1.5836949152542383,48.30501931573325,-149.98,88.55,0.26369619061124,0.004324137945288152,0.2575589499142786,0.27372376756931643,1.9999400243568246,0.11648017958026056,1.7420518429527199,2.148669101680176,1.9560041896311435,2.853341143433388,2.8959370013126318e-08,10.557165643092354,-3.997252062437304,0.0647090925382851,-4.064306511449896,-3.867190214240101,-0.9552522730908704,3.845980416862348,-7.31964111328125,5.28106689453125,32.07000000000001,7.105427357601002e-15,32.07,32.07,0.16271186440677965,0.0,0,1,0
0,0.02104606963082762,0.0007327613061454722,0.01788939163671854,0.022705766308142764,-0.021046059667263292,0.0007327609592439104,-0.022705755558849988,-0.01788938316757878,-1.4480808675207627e-05,5.041785219291116e-07,-1.5622767742371126e-05,-1.230884731217119e-05,-1.4480808675207627e-05,5.041785219291116e-07,-1.5622767742371126e-05,-1.230884731217119e-05,1.7547457627118659,28.758211393660797,-62.59,41.53,0.2652558996320177,0.0011346524537242917,0.26353735509571763,0.26737624749851385,1.8787520736657295,0.18141212873821203,1.5437479212297616,2.158159116466711,1.0375674179711454,1.4973741219751973,5.44685931913591e-07,4.647194033556886,-3.82381799181277,0.17623902192097393,-4.049990882841497,-3.4899037301607967,0.1872948893027168,1.9593307503262574,-3.17535400390625,3.63616943359375,32.06555555555556,0.015713484026370177,32.05,32.09,0.13559322033898305,-0.0014860681114553407,0,1,0
0,0.019031466874646127,0.0005870047821421091,0.01788939163671854,0.020641605734675238,-0.019031457864828745,0.0005870045042441449,-0.020641595962590898,-0.01788938316757878,-1.3094655460828938e-05,4.0389032682762056e-07,-1.4202516129428297e-05,-1.230884731217119e-05,-1.3094655460828938e-05,4.0389032682762056e-07,-1.4202516129428297e-05,-1.230884731217119e-05,-2.196156462585034,25.66856042731835,-60.39,30.45,0.2676273825721804,0.0009187038382847708,0.2658955336720798,0.2692424706166257,1.1106084227101487,0.27235684558199724,0.6715670117352155,1.5211202106190336,0.44488954781457185,0.6275721835561926,1.8859927664038878e-07,1.7569548359168898,-2.963049235152052,0.28938060167803464,-3.4396527429477457,-2.5004765458660065,-0.11133049070373062,3.0786233353844197,-4.63714599609375,5.29937744140625,32.075263157894746,0.008806947647728488,32.07,32.09,0.16326530612244897,0.0006666666666667708,0,1,0
0,0.021006695359914375,0.001889528261649397,0.017201338112229368,0.025457980406099465,-0.021006685414990466,0.0018895273671148446,-0.02545796835386211,-0.01720132996882575,-1.4453717094982819e-05,1.3000953490747606e-06,-1.7516436559628233e-05,-1.1835430107856916e-05,-1.4453717094982819e-05,1.3000953490747606e-06,-1.7516436559628233e-05,-1.1835430107856916e-05,-0.293728813559321,26.112465332805456,-59.04,32.29,0.2699983438285122,0.001299420323227482,0.2672161283269929,0.2717054307802196,0.4257486579462262,0.11663674854226336,0.2678950850557656,0.6192232037360221,0.17492383297073888,0.4359317889268589,8.119588379429388e-08,1.6934628251387025,-2.1803682706662246,0.14162325591237265,-2.455452726333021,-1.9953480017557428,0.18820956446463893,2.541642824432081,-3.77349853515625,4.82330322265625,32.09333333333334,0.01527525231651884,32.07,32.11,0.13559322033898305,0.0015892672858616318,0,1,0
0,0.018568147140606516,0.0007957823794924575,0.016513284587740193,0.021329659259164413,-0.018568138350132445,0.0007957820027556545,-0.02132964916134393,-0.01651327677007272,-1.2775866986697472e-05,5.475403525061212e-07,-1.4675933333742575e-05,-1.1362012903542639e-05,-1.2775866986697472e-05,5.475403525061212e-07,-1.4675933333742575e-05,-1.1362012903542639e-05,0.9025423728813563,26.752160767678745,-58.49,32.24,0.27010268175430197,0.0008980375108885532,0.2686721570752855,0.2719920733497393,0.21322163891374907,0.027153888947504617,0.1622479839160823,0.2521653190704243,0.2144632969669133,0.41419460669792174,1.784920922176525e-07,1.4050875092093742,-1.963358297501357,0.013334142204892468,-1.9910334445258582,-1.948295529335057,0.8443950719336422,2.3989172695779204,-3.16009521484375,5.11932373046875,32.095263157894756,0.00880694764772536,32.09,32.11,0.13559322033898305,-0.0012280701754383522,0,1,0
0,0.0217041101568456,0.0014113030241160126,0.01788939163671854,0.024081873357121114,-0.02170409988175374,0.0014113023559813545,-0.02408186195635605,-0.01788938316757878,-1.4933575349695901e-05,9.710511004406593e-07,-1.656960215099968e-05,-1.230884731217119e-05,-1.4933575349695901e-05,9.710511004406593e-07,-1.656960215099968e-05,-1.230884731217119e-05,-0.23925423728813602,29.15572337544608,-62.25,35.67,0.26977671337400255,0.0008915006287056552,0.26806182269103807,0.27118356840849944,0.3090033221932882,0.05161531833509432,0.23477521846286142,0.38540749015220604,0.2787872829136193,0.4787454316479701,3.9556234554538605e-07,1.500239162758315,-2.0737572791132393,0.04657318009911556,-2.1495679572188964,-1.9987040877386995,-0.23364600578968547,2.2545032647128314,-4.02984619140625,3.68499755859375,32.11666666666667,0.013333333333333842,32.09,32.13,0.13559322033898305,0.0016511867905056993,0,1,0
0,0.02183984860725499,0.0007271425238778861,0.019953552210186066,0.022705766308142764,-0.021839838267902267,0.0007271421796363493,-0.022705755558849988,-0.01995354276383787,-1.5026970580479005e-05,5.0031250264704e-07,-1.5622767742371126e-05,-1.372909892511402e-05,-1.5026970580479005e-05,5.0031250264704e-07,-1.5622767742371126e-05,-1.372909892511402e-05,-1.0386734693877544,24.120840283775742,-55.53,25.98,0.2699977232575128,0.0012410865440589136,0.26715824614422534,0.27200856376605803,0.4648775463506114,0.06810218121366998,0.3414944013193992,0.543375847545893,0.3662070999332585,0.8260838185177994,8.825476704998891e-08,3.2382791435640526,-2.2221349952991734,0.036642591838154645,-2.277260544954561,-2.158082782793025,0.21501119911818586,2.2750694095621182,-3.19061279296875,4.608154296875,32.12555555555556,0.008314794192832283,32.11,32.13,0.13605442176870747,0.0011558307533541539,0,1,0
0,0.021199486970747482,0.0003695890090609915,0.019953552210186066,0.022017712783653588,-0.02119947693455282,0.00036958883409132076,-0.02201770236009696,-0.01995354276383787,-1.4586367916710148e-05,2.542967795199361e-07,-1.514935053805685e-05,-1.372909892511402e-05,-1.4586367916710148e-05,2.542967795199361e-07,-1.514935053805685e-05,-1.372909892511402e-05,1.862745762711864,26.043584725266665,-57.1,39.25,0.2691967226163593,0.0017102135273883983,0.26505958719512185,0.27109420991150923,0.5210115395673696,0.05414989501113385,0.40439329553986547,0.5801690759840346,0.4851869081515363,0.9326860507295122,6.771945315620087e-08,3.4103992693896057,-2.3075344550887236,0.011076837281601594,-2.317573805044598,-2.2822309602791226,0.7522649268062771,2.9727316271005946,-3.99627685546875,5.18035888671875,32.1457894736842,0.019551763811584737,32.13,32.18,0.13559322033898305,0.0029473684210523693,0,1,0
0,0.02102541790479841,0.0005331406975592027,0.01926549868569689,0.022705766308142764,-0.021025407951010947,0.0005331404451614027,-0.022705755558849988,-0.01926548956508484,-1.446659919578049e-05,3.668289886779178e-07,-1.5622767742371126e-05,-1.3255681720799745e-05,-1.446659919578049e-05,3.668289886779178e-07,-1.5622767742371126e-05,-1.3255681720799745e-05,0.21094915254237362,26.021009838156065,-57.35,30.84,0.27014242179248626,0.0010506880198949424,0.26789128008843505,0.27164790154290885,0.5366286064886034,0.03441190653221825,0.4754604420696197,0.5949397289516092,0.3000148179300592,0.6739260057299884,2.275708652632602e-07,2.6734867240445634,-2.2869923936598275,0.019258703189328697,-2.3133222823470496,-2.2514941315518633,-2.0728399766146155,3.6432427903506825,-6.8878173828125,6.0791015625,32.14999999999999,7.105427357601002e-15,32.15,32.15,0.16271186440677965,0.0,0,1,0
0,0.0212366790531523,0.000345406135149043,0.019953552210186066,0.022017712783653588,-0.02123666899935028,0.0003454059716279519,-0.02201770236009696,-0.01995354276383787,-1.4611958035862276e-05,2.3765768364701113e-07,-1.514935053805685e-05,-1.372909892511402e-05,-1.4611958035862276e-05,2.3765768364701113e-07,-1.514935053805685e-05,-1.372909892511402e-05,-1.2049830508474582,20.75707931308936,-46.79,25.55,0.26995309441753806,0.0011270931468681468,0.26838773317025555,0.2726329789960386,0.43979368514266437,0.037965753118188596,0.34914284439477705,0.4938189657522344,0.3276259313099309,0.5228059366564951,9.947960322165272e-08,1.6501356016503088,-2.197379339729206,0.029981114155414008,-2.2463605462863017,-2.148683796073891,1.214731183300539,2.162210032679455,-1.90277099609375,6.10198974609375,32.15315789473683,0.004648295192803204,32.15,32.16,0.16271186440677965,0.0001228070175438352,0,1,0
0,0.021348381804048407,0.0003759690269913,0.019953552210186066,0.022705766308142764,-0.021348371697364435,0.0003759688490012211,-0.022705755558849988,-0.01995354276383787,-1.4688815434540235e-05,2.5868656918678505e-07,-1.5622767742371126e-05,-1.372909892511402e-05,-1.4688815434540235e-05,2.5868656918678505e-07,-1.5622767742371126e-05,-1.372909892511402e-05,-1.3824489795918373,20.320397951665804,-52.95,21.22,0.2693219429147507,0.0008599910404520076,0.2674459434242009,0.27095486642351796,0.32035433404359154,0.04498430476280611,0.23579820996180711,0.3825561639739004,0.23631028408053867,0.3755662579214998,2.771569018733544e-07,1.1447088622871888,-2.102633075857345,0.02440591377228647,-2.1435658958288695,-2.0634826236475874,-0.3054446085511011,1.7325577846074764,-2.61688232421875,3.41644287109375,32.17111111111111,0.012862041003100962,32.15,32.18,0.13605442176870747,0.0018988648090816776,0,1,0
0,0.021376465621374508,0.000587899834426335,0.019953552210186066,0.022705766308142764,-0.021376455501395164,0.0005878995561046367,-0.022705755558849988,-0.01995354276383787,-1.4708138585736739e-05,4.045061701232817e-07,-1.5622767742371126e-05,-1.372909892511402e-05,-1.4708138585736739e-05,4.045061701232817e-07,-1.5622767742371126e-05,-1.372909892511402e-05,1.071254237288136,28.472251852383103,-56.36,40.97,0.2696566782862886,0.0009673713623772605,0.2678852658590095,0.2713963772395969,0.25019474643992756,0.03344723792600976,0.1921281392358697,0.2985045033286377,0.11493518979587647,0.4015207619155438,1.4603730136286686e-07,1.7941797675992373,-2.020197743300033,0.023538530568460964,-2.0590724282491504,-1.9815648005481534,-0.22269265527464913,2.4213247557825666,-3.83453369140625,4.26177978515625,32.18210526315789,0.016408902387495917,32.16,32.21,0.16271186440677965,0.0005964912280702562,0,1,0
0,0.02144123550637881,0.0003204783709945425,0.020641605734675238,0.022017712783653588,-0.021441225355736334,0.0003204782192746757,-0.02201770236009696,-0.020641595962590898,-1.4752703691198946e-05,2.2050606390261524e-07,-1.514935053805685e-05,-1.4202516129428297e-05,-1.4752703691198946e-05,2.2050606390261524e-07,-1.514935053805685e-05,-1.4202516129428297e-05,1.0539999999999985,23.914099697437557,-54.85,30.42,0.26939554308640695,0.0007447845238742282,0.2680149433560755,0.2712249666858551,0.1611855107048559,0.021405168472969895,0.12340323923300403,0.19329635868112116,0.10614577996437825,0.2637880906496817,1.0009624418216845e-07,0.9661249670524108,-1.9439252673536214,0.01906381927907381,-1.9772583657938543,-1.9157606820241715,1.0160843260052261,2.2881103903215587,-2.899169921875,4.50592041015625,32.18666666666667,0.012472191289246945,32.18,32.21,0.13559322033898305,0.0014860681114551647,0,1,0
0,0.021559010433994073,0.0003876742424686514,0.020641605734675238,0.022705766308142764,-0.021559000227594965,0.0003876740589371259,-0.022705755558849988,-0.020641595962590898,-1.4833739068514003e-05,2.6674037632525976e-07,-1.5622767742371126e-05,-1.4202516129428297e-05,-1.4833739068514003e-05,2.6674037632525976e-07,-1.5622767742371126e-05,-1.4202516129428297e-05,-0.8784693877551051,25.147189359672783,-59.61,35.5,0.26895733400242283,0.0007595715407780454,0.2678420692147053,0.2706040294168638,0.11412653352388011,0.015287188680079344,0.08528386869691482,0.13519449633367797,0.09008793856851555,0.1733297245395299,1.1470823269021935e-07,0.5103559745520849,-1.9090811337046796,0.004228371653027901,-1.9194782658443543,-1.9046169329647578,-0.5059273012222782,2.5194069823123297,-4.23431396484375,4.13665771484375,32.205,0.01118033988749937,32.18,32.21,0.16326530612244897,0.001393188854489217,0,1,0
0,0.02150752343556291,0.00040992326864275244,0.01926549868569689,0.022705766308142764,-0.02150751325353861,0.0004099230745781622,-0.022705755558849988,-0.01926548956508484,-1.4798313291320417e-05,2.82048882706181e-07,-1.5622767742371126e-05,-1.3255681720799745e-05,-1.4798313291320417e-05,2.82048882706181e-07,-1.5622767742371126e-05,-1.3255681720799745e-05,0.8076610169491514,22.90670088372867,-52.19,29.99,0.268366073961586,0.0008118375220264809,0.2672632135619947,0.2701029016652753,0.1568036991937713,0.031143984437077027,0.11403875963699044,0.2096893049380698,0.13562669477127742,0.3044780986780233,2.438511117475173e-07,1.2503906428098128,-1.9783849494783226,0.03841797056826293,-2.0464242973046387,-1.9231094191617024,-0.28157198695331886,2.3657561272842362,-3.66973876953125,4.09088134765625,32.21842105263158,0.009874559494363151,32.21,32.23,0.16271186440677965,-0.0012631578947365908,0,1,0
0,0.021762017217120382,0.0004614245187802593,0.019953552210186066,0.023393819832631935,-0.021762006914614454,0.00046142430033410805,-0.02339380875760302,-0.01995354276383787,-1.4973418468885993e-05,3.17484465827261e-07,-1.6096184946685404e-05,-1.372909892511402e-05,-1.4973418468885993e-05,3.17484465827261e-07,-1.6096184946685404e-05,-1.372909892511402e-05,-0.7679661016949134,26.694232931392893,-57.41,32.65,0.2682550958779849,0.0013310136671986189,0.26553386783521216,0.2707801511418833,0.2912783992137207,0.05913085639131559,0.16128757433773283,0.36687553733155376,0.32231642755557677,0.6860638677282351,1.0435272823627884e-07,2.6527464350074363,-2.1157134329752507,0.03379920931891324,-2.162706853695453,-2.0546982837186074,-0.07740320199178755,2.0412403157811734,-3.30352783203125,3.73382568359375,32.21888888888889,0.009938079899997088,32.21,32.23,0.16271186440677965,0.0016511867905053474,0,1,0
0,0.02183516797103397,0.0003876177260688376,0.021329659259164413,0.022705766308142764,-0.0218351576338972,0.00038761754256406674,-0.022705755558849988,-0.02132964916134393,-1.5023750055279576e-05,2.667014900539943e-07,-1.5622767742371126e-05,-1.4675933333742575e-05,-1.5023750055279576e-05,2.667014900539943e-07,-1.5622767742371126e-05,-1.4675933333742575e-05,0.44915254237288127,25.088341859276333,-53.79,29.62,0.2676329866058808,0.0011992425155025145,0.26498152963304916,0.2696263517026567,0.30230297877770945,0.02978057651425591,0.2452637975526568,0.3668062640463848,0.2230628323612268,0.45355410315359573,1.0943960404574682e-07,1.317216987201407,-2.1512700299969385,0.019723743709370013,-2.169966349187261,-2.1082412018764507,0.9711575567278613,1.874689240223615,-2.09197998046875,3.49273681640625,32.225789473684216,0.015326547135326716,32.21,32.25,0.16271186440677965,0.001614035087719002,0,1,0
0,0.021619858704867278,0.0004086385751663096,0.020641605734675238,0.022017712783653588,-0.021619848469661557,0.00040863838170991434,-0.02201770236009696,-0.020641595962590898,-1.4875605896106407e-05,2.81164945668768e-07,-1.514935053805685e-05,-1.4202516129428297e-05,-1.4875605896106407e-05,2.81164945668768e-07,-1.514935053805685e-05,-1.4202516129428297e-05,0.9354761904761921,24.536560010608568,-54.56,30.35,0.2684315830134556,0.0008361948074538308,0.2671325942090798,0.2705305053405235,0.21831735885767187,0.055297024806226384,0.12578491411473516,0.30275335380555907,0.0833317814266317,0.18660563228643368,1.2272339677821265e-07,0.6332061525036035,-2.0360482825568784,0.03833930051635382,-2.1008127277321123,-1.9780586562104205,-0.20673340070928,2.307708333539319,-3.643798828125,3.81927490234375,32.23111111111112,0.014098419489388196,32.21,32.25,0.16326530612244897,0.00233230134158928,0,1,0
0,0.021255275094354712,0.0003498824273012498,0.020641605734675238,0.022017712783653588,-0.021255265031749012,0.00034988226166100697,-0.02201770236009696,-0.020641595962590898,-1.4624753095438334e-05,2.4073760932280064e-07,-1.514935053805685e-05,-1.4202516129428297e-05,-1.4624753095438334e-05,2.4073760932280064e-07,-1.514935053805685e-05,-1.4202516129428297e-05,-1.0709491525423718,23.16923746097049,-52.73,29.36,0.2680796680765725,0.0004931878679827904,0.26720551802472947,0.26876945425802373,0.137186633070047,0.020713813091348215,0.10323361842666673,0.1719868950011881,0.08493506681007257,0.16485903035956728,1.8371639143310858e-07,0.5785541943319015,-1.9706830454205135,0.013937051215437342,-2.005169108292508,-1.9571854319680957,-0.5502823860414566,2.099665169371638,-3.51104736328125,3.45611572265625,32.23736842105262,0.016170833153407595,32.21,32.25,0.13559322033898305,-0.0003508771929823364,0,1,0
0,0.021296894805617243,0.0002451867192762638,0.020641605734675238,0.022017712783653588,-0.021296884723308082,0.00024518660320073474,-0.02201770236009696,-0.020641595962590898,-1.4653389657346659e-05,1.6870142662365544e-07,-1.514935053805685e-05,-1.4202516129428297e-05,-1.4653389657346659e-05,1.6870142662365544e-07,-1.514935053805685e-05,-1.4202516129428297e-05,-2.135525423728814,23.50626695330124,-54.7,27.66,0.2676068497577129,0.0009659279227667117,0.26564641600412064,0.26937980240046944,0.25274930688335,0.07019285218068418,0.13158777314099035,0.3680887074100613,0.2878986390593398,0.4962429266368695,1.2421410211516104e-07,1.6073306064254105,-2.1022297374330656,0.058013445496711474,-2.2010215040866576,-2.0133265079984697,0.6521184141873352,2.107592653111542,-2.87322998046875,3.5919189453125,32.24111111111111,0.021314806770279783,32.21,32.27,0.13559322033898305,-0.0016511867905058754,0,1,0
0,0.020939142393913774,0.0005434372890546629,0.01926549868569689,0.022017712783653588,-0.0209391324809706,0.0005434370317822847,-0.02201770236009696,-0.01926548956508484,-1.440723708264527e-05,3.7391358803865343e-07,-1.514935053805685e-05,-1.3255681720799745e-05,-1.440723708264527e-05,3.7391358803865343e-07,-1.514935053805685e-05,-1.3255681720799745e-05,3.3457288135593224,28.507155701047157,-66.19,34.72,0.2667666866873328,0.0015753052927711094,0.26289364203890453,0.269972685988013,0.4209214497454429,0.0756351126157124,0.27696433514903174,0.5081300645993825,0.4177841946656902,0.7222044418866644,8.615920776833264e-08,2.796161099366082,-2.3042717088086624,0.05161365839790747,-2.380238045184421,-2.213105234747221,-0.0500514793573534,1.8994595433706176,-3.13873291015625,3.01361083984375,32.25444444444444,0.008314794192832278,32.25,32.27,0.16271186440677965,-0.0001651186790505934,0,1,0
0,0.020253112928331023,0.0003854639627122498,0.01926549868569689,0.021329659259164413,-0.02025310334016571,0.0003854637802271086,-0.02132964916134393,-0.01926548956508484,-1.3935212537876714e-05,2.6521958698869807e-07,-1.4675933333742575e-05,-1.3255681720799745e-05,-1.3935212537876714e-05,2.6521958698869807e-07,-1.4675933333742575e-05,-1.3255681720799745e-05,-1.5239795918367345,26.349067342300888,-58.9,31.74,0.2668442046372872,0.0010910300978068978,0.2651956674825261,0.2691657112253783,0.5473761215162515,0.043251892443261004,0.49587675518242236,0.6256615939565713,0.5022703768600415,0.7970568709160597,1.7484904368814114e-07,2.4969483837824047,-2.4282950734229716,0.0217294528981072,-2.458657520651518,-2.3867586766028466,-0.25948315997456395,1.639627540183412,-2.94647216796875,2.49786376953125,32.25315789473684,0.007292845505554308,32.25,32.27,0.13605442176870747,0.0008421052631580263,0,1,0
0,0.026473678466059657,0.008172087908503522,0.006192481720402572,0.0516040143366881,-0.026473665932973723,0.008172084039699266,-0.05160398990647725,-0.00619247878877727,-1.82152905279017e-05,5.622828563993662e-06,-3.550629032357074e-05,-4.260754838828489e-06,-1.82152905279017e-05,5.622828563993662e-06,-3.550629032357074e-05,-4.260754838828489e-06,1.9855593220338978,38.23530472924216,-118.04,68.72,0.266559295678752,0.0015170357752402417,0.26282399827978153,0.2681227681852318,0.5870029109146858,0.045657799791010874,0.4813889482031634,0.6396501979957872,0.3634353444583113,0.7655765487301903,9.610304374518819e-08,2.9521809938706713,-2.479840938433249,0.011767542542733572,-2.5004187261047046,-2.4610153081044546,0.8940490476470389,3.6003813198742347,-4.48150634765625,6.88018798828125,32.25666666666666,0.016329931618557076,32.23,32.27,0.13559322033898305,0.0009907120743035606,0,1,0
0,0.023570482224054834,0.0010704844674334372,0.020641605734675238,0.026834087455077812,-0.02357047106539096,0.0010704839606480345,-0.02683407475136817,-0.020641595962590898,-1.621773801265796e-05,7.365499133376917e-07,-1.8463270968256787e-05,-1.4202516129428297e-05,-1.621773801265796e-05,7.365499133376917e-07,-1.8463270968256787e-05,-1.4202516129428297e-05,-3.087220338983053,28.764648979564356,-66.76,53.53,0.26715833656017496,0.002124203058196493,0.26502211279792437,0.27281076374264596,0.66210213983041,0.05431251382820853,0.59565512198212,0.7705988152884329,0.5870865680294336,1.0293093358071828,5.355971666176629e-08,3.9166550431087295,-2.5298402285832875,0.01551768529302149,-2.5531168690085737,-2.5033425857408598,-0.4703526461390644,2.8353641550506627,-4.59747314453125,4.229736328125,32.25315789473684,0.007292845505554309,32.25,32.27,0.08135593220338982,-0.0008421052631580263,0,1,0
0,0.023904009180722535,0.0012014017948497693,0.019953552210186066,0.027522140979566984,-0.023903997864161357,0.0012014012260858898,-0.027522127950121197,-0.01995354276383787,-1.644722219342186e-05,8.266279565942122e-07,-1.8936688172571062e-05,-1.372909892511402e-05,-1.644722219342186e-05,8.266279565942122e-07,-1.8936688172571062e-05,-1.372909892511402e-05,-0.459152542372882,30.73879825667988,-67.15,53.83,0.2671831850140846,0.0018516447637801471,0.2630992051222322,0.27080661784524024,0.6869223119629093,0.053644016199641556,0.5776859558889886,0.7656301861143546,0.4935056745040616,0.8670512303638903,1.1401990818171726e-07,2.766785834164665,-2.5555891848019687,0.005339423895208896,-2.560456345206831,-2.5417852002843593,-0.3367263931241274,2.8364715244981076,-4.48760986328125,5.00640869140625,32.274444444444434,0.008314794192829324,32.27,32.29,0.16271186440677965,-0.0011558307533537434,0,1,0
0,0.02622092411012486,0.0033851841938741683,0.01788939163671854,0.041283211469350475,-0.02622091169669706,0.00338518259127087,-0.041283191925181796,-0.01788938316757878,-1.804138216713318e-05,2.329185710286997e-06,-2.8405032258856593e-05,-1.230884731217119e-05,-1.804138216713318e-05,2.329185710286997e-06,-2.8405032258856593e-05,-1.230884731217119e-05,0.5785034013605478,43.62764758515653,-91.0,82.54,0.2651705542252151,0.0024400218543618388,0.26180983232837163,0.2689448636879946,0.5392036164844987,0.12186637102485949,0.39584916349147875,0.7112916869898548,0.32807443245428497,0.46326022086071117,7.107482424828504e-08,1.3700481741225774,-2.4850321629162044,0.03614088126758553,-2.5377309110819297,-2.421084617723441,0.006925142728365385,2.6072245719939455,-3.8818359375,5.0506591796875,32.25666666666666,0.009428090415822106,32.25,32.27,0.05442176870748299,-0.0001651186790505934,0,1,0
0,0.023491449048944613,0.0008762243670100597,0.021329659259164413,0.026146033930588636,-0.023491437927696375,0.0008762239521906626,-0.02614602155261514,-0.02132964916134393,-1.61633590094597e-05,6.028886931288075e-07,-1.7989853763942512e-05,-1.4675933333742575e-05,-1.61633590094597e-05,6.028886931288075e-07,-1.7989853763942512e-05,-1.4675933333742575e-05,2.5521355932203402,29.796716617807984,-67.0,38.88,0.26471470412084114,0.0005067417987966447,0.26388607212778215,0.2655484879125284,0.3717817938585982,0.04710389808316261,0.2950455780979976,0.4356569724132129,0.248822394812603,0.3038785871267501,5.562533642589074e-07,0.9391094582908464,-2.3376062300544826,0.04421935642371071,-2.412563894407334,-2.2689974278453917,-0.014003630607358871,1.07356556206261,-1.96990966796875,2.264404296875,32.25,0.012977713690463032,32.23,32.27,0.13559322033898305,-0.0005614035087720176,0,1,0
0,0.022827462849889176,0.0011140897489556813,0.020641605734675238,0.030274355077523685,-0.022827452042983146,0.0011140892215267997,-0.03027434074513332,-0.020641595962590898,-1.5706501397555956e-05,7.665526525677846e-07,-2.083035698982817e-05,-1.4202516129428297e-05,-1.5706501397555956e-05,7.665526525677846e-07,-2.083035698982817e-05,-1.4202516129428297e-05,-2.4995254237288136,40.1274731339236,-111.99,112.77,0.2646322396588328,0.0013830322260456067,0.2619197572017726,0.26606556949078713,0.2620500094892686,0.05681853071376275,0.16656448301001178,0.3465059480450659,0.14267756019167846,0.3601392371569714,8.18022813930952e-08,1.4162915846477353,-2.230860879460498,0.01476312691533234,-2.262841966896568,-2.2166546102955933,0.46899164089163825,1.4054898636450208,-1.81732177734375,2.825927734375,32.235555555555564,0.008958064164777567,32.23,32.25,0.13559322033898305,-0.0006811145510836979,0,1,0
0,0.022389633607701766,0.00037837346344361735,0.021329659259164413,0.023393819832631935,-0.022389623008071593,0.000378373284315237,-0.02339380875760302,-0.02132964916134393,-1.540525172957806e-05,2.6034094859578785e-07,-1.6096184946685404e-05,-1.4675933333742575e-05,-1.540525172957806e-05,2.6034094859578785e-07,-1.6096184946685404e-05,-1.4675933333742575e-05,1.1727796610169492,32.53254661967949,-69.75,40.31,0.26426154452305956,0.0012339162278406906,0.2614584279645802,0.26656304228776195,0.2811189393441646,0.04428661643293573,0.20730881290601044,0.37904698625532757,0.2950472125104359,0.5987686132582419,1.1133804544982695e-07,1.9374449773823126,-2.2641850278109286,0.03686044194763141,-2.3384991897969716,-2.2193634969759333,-0.08297487168986507,1.921375005859222,-4.11834716796875,2.69012451171875,32.23000000000001,0.012977713690460725,32.21,32.25,0.13559322033898305,-0.0016842105263156785,0,1,0
0,0.022209618868715145,0.00031883345058404303,0.021329659259164413,0.022705766308142764,-0.022209608354307023,0.00031883329964290785,-0.022705755558849988,-0.02132964916134393,-1.5281392071232917e-05,2.1937427168828586e-07,-1.5622767742371126e-05,-1.4675933333742575e-05,-1.5281392071232917e-05,2.1937427168828586e-07,-1.5622767742371126e-05,-1.4675933333742575e-05,-0.744863945578232,31.879761890245803,-71.11,50.0,0.26431564956527137,0.000627307133906723,0.26314570960828765,0.26554553451674956,0.5092115682119063,0.08136997937229504,0.38622342090302725,0.6712194046111124,0.513760332104121,0.7828436924085165,9.592444119022048e-07,2.24160062054869,-2.489806075986487,0.09250723385361054,-2.650000226532026,-2.350880222487474,0.1197521503155048,2.904062840588354,-4.345703125,5.10101318359375,32.23444444444445,0.00831479419283228,32.23,32.25,0.13605442176870747,0.0001651186790505934,0,1,0
0,0.023328290925537735,0.0018672864225791714,0.013073016965294318,0.030274355077523685,-0.023328279881531307,0.0018672855385742813,-0.03027434074513332,-0.01307301077630757,-1.605109759389357e-05,1.2847917878013083e-06,-2.083035698982817e-05,-8.994926881971256e-06,-1.605109759389357e-05,1.2847917878013083e-06,-2.083035698982817e-05,-8.994926881971256e-06,5.336338983050848,36.31030600518502,-73.92,89.1,0.26450820058272123,0.000976970976394248,0.26214874575479086,0.2659956290609528,0.849891923873475,0.08905782625787614,0.6956621074403105,1.017085747950046,0.6462020358923555,1.0250795974282,3.233617462683469e-08,3.121759970435111,-2.8320022170777226,0.09063168680427756,-2.9618373718547812,-2.670232278789547,0.37608608122794857,3.585697544262473,-5.6976318359375,6.19964599609375,32.22578947368421,0.00815364914990873,32.21,32.23,0.13559322033898305,-0.00035087719298238635,0,1,0
0,0.02717811421732239,0.0036797261605800314,0.017201338112229368,0.04541153261628553,-0.02717810135074466,0.003679724418535591,-0.045411511117699976,-0.01720132996882575,-1.8699979570413938e-05,2.531846156703046e-06,-3.124553548474225e-05,-1.1835430107856916e-05,-1.8699979570413938e-05,2.531846156703046e-06,-3.124553548474225e-05,-1.1835430107856916e-05,-8.555559322033899,61.344217261831766,-170.72,114.44,0.2645576010470213,0.005682494983604667,0.2534087552913123,0.2706136362388903,1.0026986569162764,0.18649268037418867,0.6688941023697779,1.1679556737067476,1.0210396806093298,1.5725617122413478,5.892350607439312e-08,5.155728847158478,-2.964067122788359,0.03088004172067044,-2.9922007188608957,-2.889625778561902,-0.7987325101989121,3.3435889401902346,-5.03997802734375,5.52215576171875,32.233333333333334,0.007453559925000464,32.23,32.25,0.08135593220338982,0.000928792569659588,0,1,0
0,0.026113269477041536,0.003780853261719625,0.017201338112229368,0.034402676224458736,-0.026113257114579274,0.0037808514717999125,-0.0344026599376515,-0.01720132996882575,-1.7967310087546585e-05,2.601426949182032e-06,-2.367086021571383e-05,-1.1835430107856916e-05,-1.7967310087546585e-05,2.601426949182032e-06,-2.367086021571383e-05,-1.1835430107856916e-05,4.718673469387757,32.72278011900129,-72.5,59.0,0.26588531279327915,0.002575411580957249,0.2630460159131968,0.2709303069873523,0.7662335729889022,0.21298246466928425,0.5078111355481085,1.1396734935225588,0.24663347935459534,0.348630771007965,4.649749882901233e-07,1.0782865390697438,-2.6855674750437184,0.12158363429675655,-2.872373196860525,-2.4790748602198196,0.6781831272778381,2.890267939010471,-4.22210693359375,6.13555908203125,32.22666666666667,0.009999999999998932,32.21,32.25,0.16326530612244897,-2.06398348814415e-05,0,1,0
0,0.01553035098132709,0.0007697903596204947,0.013073016965294318,0.017201338112229368,-0.015530343628996954,0.0007697899951887529,-0.01720132996882575,-0.01307301077630757,-1.06857026116651e-05,5.296564685577013e-07,-1.1835430107856916e-05,-8.994926881971256e-06,-1.06857026116651e-05,5.296564685577013e-07,-1.1835430107856916e-05,-8.994926881971256e-06,-2.0685762711864415,16.700924525513393,-40.92,21.7,0.2648083675173154,0.0007156429765142578,0.263300779287683,0.2658569650286902,0.2954313864265132,0.0911730202787631,0.16069452087653258,0.48295711682575737,0.08634358355762912,0.22151811176275427,1.1729932536397314e-07,0.9115999301355142,-2.259115427687517,0.10804299975236334,-2.4540054239420965,-2.104760557894047,0.9173528136449771,6.873858509760061,-10.02044677734375,10.53619384765625,32.23842105263158,0.00987455949436666,32.23,32.25,0.16271186440677965,0.0015438596491230484,0,1,0
0,0.01593215830016488,0.0007906461804286805,0.014449124014272667,0.018577445161207715,-0.015932150757612368,0.0007906458061234421,-0.018577436366331808,-0.01444911717381363,-1.0962167291790717e-05,5.440063759839018e-07,-1.2782264516485466e-05,-9.941761290599808e-06,-1.0962167291790717e-05,5.440063759839018e-07,-1.2782264516485466e-05,-9.941761290599808e-06,2.5630847457627106,22.109420179051167,-46.34,37.72,0.2652118222187139,0.0007384315879372441,0.263799333463478,0.26660041528206374,0.09740868102699773,0.01953681607930296,0.07305068742176751,0.1454073434141245,0.04542033932833781,0.12210758567021401,9.57508408117036e-08,0.41955922911754273,-2.0407524758424582,0.02428197634667042,-2.0937567447506424,-2.016273016275986,-4.362417724685124,5.71867373389322,-10.6964111328125,5.15289306640625,32.23444444444445,0.00831479419283228,32.23,32.25,0.18983050847457628,0.0001651186790505934,0,1,0
0,0.015811189154587974,0.0003718676370647202,0.015137177538761842,0.016513284587740193,-0.0158111816693043,0.000371867461016308,-0.01651327677007272,-0.01513717037256666,-1.0878934123630108e-05,2.558645960644382e-07,-1.1362012903542639e-05,-1.0415178494914085e-05,-1.0878934123630108e-05,2.558645960644382e-07,-1.1362012903542639e-05,-1.0415178494914085e-05,-2.805118644067796,14.253653705944117,-34.18,16.31,0.26554138271475436,0.0008506447051533645,0.2636599347317698,0.26722204696278196,0.10232829664100491,0.04210463352500054,0.04558664460474822,0.19116371218182748,0.1480724431928783,0.23603420924181862,1.8759177744520628e-07,0.7888280420971089,-2.034591742194108,0.013629032625283758,-2.0588520545657856,-2.016595230371202,3.7414148486873353,2.4938783370053685,0.09613037109375,7.74078369140625,32.22684210526317,0.009761703679468105,32.21,32.25,0.16271186440677965,0.0010877192982455097,0,1,0
0,0.015895440606566252,0.0003565280889705971,0.015137177538761842,0.016513284587740193,-0.01589543308139652,0.00035652792018418594,-0.01651327677007272,-0.01513717037256666,-1.0936903577219608e-05,2.4531017592749416e-07,-1.1362012903542639e-05,-1.0415178494914085e-05,-1.0936903577219608e-05,2.4531017592749416e-07,-1.1362012903542639e-05,-1.0415178494914085e-05,-0.5248639455782307,27.564308193857844,-61.92,39.59,0.2666487326207472,0.0007713436964604667,0.26541611877435817,0.26749202629342694,0.19288622861888868,0.029804930475043144,0.14696934452225774,0.2333751052409703,0.12853313298039498,0.3196607189285301,2.7408502623060826e-07,1.3308985072188682,-2.082563821064003,0.012062457519264918,-2.1010461717253515,-2.0616332858237683,0.264917473047602,0.6628074040527514,-1.13372802734375,1.3031005859375,32.22777777777778,0.01749779527558133,32.21,32.25,0.16326530612244897,0.0,0,1,0
0,0.016104171681287183,0.0003737758022589232,0.015137177538761842,0.017201338112229368,-0.01610416405730064,0.0003737756253071536,-0.01720132996882575,-0.01513717037256666,-1.1080521592869276e-05,2.5717751460850144e-07,-1.1835430107856916e-05,-1.0415178494914085e-05,-1.1080521592869276e-05,2.5717751460850144e-07,-1.1835430107856916e-05,-1.0415178494914085e-05,2.9065084745762735,34.19921607307162,-73.1,44.38,0.2668295072161914,0.0014418284726521633,0.2642515971788508,0.2691629955032437,0.23293875902470643,0.0498542970691375,0.17564111216419273,0.31658544657827536,0.20374603862581186,0.49012043658821924,9.700095926490349e-08,1.9626948938233908,-2.115225625982614,0.0065420870199463105,-2.1240733269153234,-2.1028553296946586,-0.5948457173614881,1.775339648649887,-3.21502685546875,2.7374267578125,32.235263157894735,0.008806947647728488,32.23,32.25,0.13559322033898305,-0.00010526315789475329,0,1,0
0,0.01618564005226917,0.0005693854965702699,0.012384963440805145,0.01788939163671854,-0.016185632389714134,0.0005693852270135718,-0.01788938316757878,-0.01238495757755454,-1.1136576139583444e-05,3.9176732676940826e-07,-1.230884731217119e-05,-8.521509677656977e-06,-1.1136576139583444e-05,3.9176732676940826e-07,-1.230884731217119e-05,-8.521509677656977e-06,0.8316610169491515,31.806226300495176,-71.2,43.73,0.26761909823219043,0.0014594460067453997,0.2646636214038554,0.27023246533740336,0.27727516371813826,0.0448103453655051,0.18872829263327218,0.3277764386067102,0.2393631622452092,0.4109641134833434,9.429726066656485e-08,1.2442059677500712,-2.1259195285113126,0.000486078399131148,-2.1263632008442337,-2.124570145438558,-0.5670801364521117,3.3708804641611643,-5.47943115234375,5.48553466796875,32.24777777777777,0.01474055462380408,32.23,32.27,0.16271186440677965,0.0019814241486071213,0,1,0
0,0.016499337556838405,0.00032459947901784076,0.015825231063251018,0.017201338112229368,-0.016499329745773672,0.00032459932534697214,-0.01720132996882575,-0.01582522357131969,-1.1352416608860573e-05,2.2334160411806012e-07,-1.1835430107856916e-05,-1.088859569922836e-05,-1.1352416608860573e-05,2.2334160411806012e-07,-1.1835430107856916e-05,-1.088859569922836e-05,-0.4410169491525441,27.246578021488656,-60.1,32.43,0.26788852044540584,0.0008184784547065314,0.2662064732777649,0.2690988820208853,0.28715134170116985,0.021949315661682938,0.24688173548952613,0.32239209266591956,0.19740178717308263,0.4111282814094602,1.4621454802465905e-07,1.3186414970050615,-2.1265111024907046,0.00125295682150129,-2.1296013883041107,-2.125489833731444,0.5358315756925321,1.5369243397888426,-1.39617919921875,3.98406982421875,32.25222222222223,0.014740554623804083,32.23,32.27,0.16271186440677965,-0.0006604747162023736,0,1,0
0,0.016499242679077174,0.0003256996423223237,0.015825231063251018,0.017201338112229368,-0.016499234868057346,0.00032569948813061914,-0.01720132996882575,-0.01582522357131969,-1.1352351327944368e-05,2.2409857464049666e-07,-1.1835430107856916e-05,-1.088859569922836e-05,-1.1352351327944368e-05,2.2409857464049666e-07,-1.1835430107856916e-05,-1.088859569922836e-05,-1.0619387755102048,24.78671563744357,-57.23,30.04,0.2679831427077915,0.0008888481979341342,0.2661210789426892,0.2698692844375603,0.3075764864395366,0.017902741897259242,0.27302837120473145,0.3355576832037027,0.2846183345984994,0.44178564440729745,8.611232527044876e-08,1.1173954765850613,-2.1426919529509125,0.0084488624723603,-2.157306700602843,-2.130414202618926,0.7528733837512113,2.3900762717133723,-3.3966064453125,4.53338623046875,32.24789473684211,0.017038330585517028,32.23,32.27,0.16326530612244897,-0.002631578947368832,0,1,0
0,0.016396268682214846,0.0004121618468892654,0.015137177538761842,0.017201338112229368,-0.01639626091994465,0.00041216165176489534,-0.01720132996882575,-0.01513717037256666,-1.1281499773557202e-05,2.835891429001689e-07,-1.1835430107856916e-05,-1.0415178494914085e-05,-1.1281499773557202e-05,2.835891429001689e-07,-1.1835430107856916e-05,-1.0415178494914085e-05,-1.1812203389830493,28.71499252653408,-64.13,36.64,0.26753508612641075,0.0011164641247286377,0.26488768783406,0.26905091823269056,0.3145919788788648,0.027782379486031746,0.25358743947535267,0.34531637205297594,0.2942476154000954,0.4377896174901994,7.854239836291299e-08,1.2811256536632456,-2.1675059962002203,0.0038903943599569698,-2.171224677897924,-2.1589206986928535,-0.2985931500639932,2.6823901406589927,-4.85992431640625,4.37164306640625,32.25444444444444,0.008314794192832278,32.25,32.27,0.16271186440677965,0.0,0,1,0
0,0.016443549433231168,0.0004136051788541623,0.015825231063251018,0.017201338112229368,-0.016443541648577482,0.00041360498304649363,-0.01720132996882575,-0.01582522357131969,-1.1314031430132392e-05,2.8458223160533365e-07,-1.1835430107856916e-05,-1.088859569922836e-05,-1.1314031430132392e-05,2.8458223160533365e-07,-1.1835430107856916e-05,-1.088859569922836e-05,0.6274237288135612,27.850378766376288,-63.68,30.74,0.26840474585493385,0.0009951275937450917,0.26605001693277536,0.27005384180551034,0.3249057382532483,0.03424944737480614,0.269114834825537,0.37979867498240294,0.1627600045951901,0.36470909160345844,1.01755060377684e-07,1.1049244606938498,-2.145275693164287,0.018274193691027087,-2.168771049345919,-2.1107449608736815,-0.5989760973909061,1.7120153353447387,-3.5369873046875,2.4688720703125,32.252105263157894,0.011040093138634898,32.23,32.27,0.13559322033898305,-0.0009473684210527796,0,1,0
0,0.016513284587740224,0.0003764349119618433,0.015825231063251018,0.017201338112229368,-0.016513276770072714,0.0003764347337512064,-0.01720132996882575,-0.01582522357131969,-1.136201290354262e-05,2.590071226792631e-07,-1.1835430107856916e-05,-1.088859569922836e-05,-1.136201290354262e-05,2.590071226792631e-07,-1.1835430107856916e-05,-1.088859569922836e-05,0.40345762711864513,29.966658414300902,-66.75,37.23,0.2681906127393654,0.00047078897612765774,0.26753827596554486,0.2693727220197676,0.2424218404764241,0.02140588420755936,0.19868149798594675,0.2752095802599179,0.13950495065654867,0.3057181587347344,1.585301383499882e-07,1.1851770675228233,-2.0698583893101334,0.020335898000317626,-2.106048842067633,-2.0412186962902403,0.9357628746873061,2.1034005894400125,-2.88238525390625,3.81622314453125,32.25222222222222,0.011331154474652405,32.23,32.27,0.16271186440677965,-0.0001651186790505934,0,1,0
0,0.01659285540349747,0.0002839414517029708,0.015825231063251018,0.017201338112229368,-0.0165928475481598,0.00028394131728029726,-0.01720132996882575,-0.01582522357131969,-1.1416761831932705e-05,1.9536673161285847e-07,-1.1835430107856916e-05,-1.088859569922836e-05,-1.1416761831932705e-05,1.9536673161285847e-07,-1.1835430107856916e-05,-1.088859569922836e-05,-0.09836734693877541,30.76569624373312,-68.63,34.34,0.2674410270647083,0.001041765772487259,0.26533760537062606,0.2692320214704481,0.19175305034470494,0.038035982877442254,0.13473602940762772,0.2516152382861788,0.18256542056697475,0.4500407201501516,1.1253628606766597e-07,1.5906444677210234,-2.049158044424746,0.013960292067073405,-2.0807940739290602,-2.0366653843846887,-0.4732368601758782,1.6971541033284578,-2.97088623046875,2.65045166015625,32.25666666666667,0.009428090415822106,32.25,32.27,0.13605442176870747,-0.0004953560371517803,0,1,0
0,0.01664810588645769,0.0003454999827625527,0.015825231063251018,0.017201338112229368,-0.01664809800496352,0.000345499819197032,-0.01720132996882575,-0.01582522357131969,-1.1454777085469066e-05,2.3772225576711204e-07,-1.1835430107856916e-05,-1.088859569922836e-05,-1.1454777085469066e-05,2.3772225576711204e-07,-1.1835430107856916e-05,-1.088859569922836e-05,0.9005762711864411,32.100005480860915,-70.54,39.5,0.26837868983341506,0.001026444383741094,0.26634464834559796,0.27016928787209815,0.33076896054793464,0.05514837577245305,0.23902922962207152,0.4034334314949795,0.2664728295689469,0.5811196644199729,6.388830620096542e-08,2.161778776573798,-2.154105796287533,0.04158644398083403,-2.2213090114589797,-2.087202003271717,0.5479902546695681,2.222913698222953,-3.10211181640625,3.47747802734375,32.26157894736841,0.00987455949436666,32.25,32.27,0.16271186440677965,-0.0001403508771930044,0,1,0
0,0.01641967186331991,0.000421932810116046,0.015825231063251018,0.017201338112229368,-0.016419664089970268,0.0004219326103659365,-0.01720132996882575,-0.01582522357131969,-1.1297602399554285e-05,2.903120822204989e-07,-1.1835430107856916e-05,-1.088859569922836e-05,-1.1297602399554285e-05,2.903120822204989e-07,-1.1835430107856916e-05,-1.088859569922836e-05,-0.2732203389830508,31.525521769667115,-67.98,33.97,0.2677816465041849,0.0015263254814009202,0.26454470020361914,0.2701845572228291,0.4207161890931563,0.05495970850127902,0.3018206328480095,0.49713878049505644,0.40053525860262845,0.7793194066194836,2.8108977279117653e-07,2.7337684031870078,-2.2601888966039625,0.014268019239064525,-2.273420070373092,-2.2278284902321652,-0.5467253000589029,1.7277821006068121,-2.9815673828125,2.9327392578125,32.26555555555555,0.00831479419283228,32.25,32.27,0.16271186440677965,-0.0006604747162023736,0,1,0
0,0.016592317762850455,0.0003534165277167324,0.015825231063251018,0.017201338112229368,-0.016592309907767323,0.00035341636040338634,-0.01720132996882575,-0.01582522357131969,-1.1416391906740879e-05,2.4316925726720414e-07,-1.1835430107856916e-05,-1.088859569922836e-05,-1.1416391906740879e-05,2.4316925726720414e-07,-1.1835430107856916e-05,-1.088859569922836e-05,0.6579661016949158,32.05087832317526,-69.33,37.36,0.269573802295231,0.0008312877252336491,0.26798617795706275,0.27078123837324525,0.43811852093609116,0.05167827400783865,0.35072230584733866,0.4946569700512878,0.28444738391305413,0.53463177982128,2.2105458263865785e-07,1.7356056054702336,-2.2141860610178257,0.03602067685664772,-2.2647234957256126,-2.1491726681412358,0.6172970565909487,1.4383450736427792,-2.02484130859375,2.71759033203125,32.27631578947368,0.009296590385606412,32.27,32.29,0.13559322033898305,0.0002456140350876704,0,1,0
0,0.016625619857044565,0.00043249686552738754,0.015825231063251018,0.017201338112229368,-0.016625611986195662,0.0004324966607760759,-0.01720132996882575,-0.01582522357131969,-1.1439305508328628e-05,2.9758071089698357e-07,-1.1835430107856916e-05,-1.088859569922836e-05,-1.1439305508328628e-05,2.9758071089698357e-07,-1.1835430107856916e-05,-1.088859569922836e-05,-0.523639455782314,31.457178496032235,-67.98,36.32,0.26953545294600584,0.001392918646148851,0.26717920143338875,0.27246641727909576,0.3033542959369716,0.043702882528352506,0.1968415911794326,0.34981856518463234,0.15818257125772306,0.3723324449839078,6.329034007990231e-08,1.3991311150522003,-2.075111249878889,0.03795582832352458,-2.1408921970767745,-2.018556129598904,-0.5109256905302516,1.3540560341675465,-2.587890625,2.19268798828125,32.28111111111111,0.00993807989999709,32.27,32.29,0.16326530612244897,0.00033023735810106946,0,1,0
0,0.016546049041287324,0.0002579875652175878,0.015825231063251018,0.017201338112229368,-0.016546041208108576,0.00025798744308192255,-0.01720132996882575,-0.01582522357131969,-1.1384556579938538e-05,1.7750908545063243e-07,-1.1835430107856916e-05,-1.088859569922836e-05,-1.1384556579938538e-05,1.7750908545063243e-07,-1.1835430107856916e-05,-1.088859569922836e-05,-1.1575254237288137,31.917367754640203,-67.57,38.86,0.26993951790879384,0.0010080311536628953,0.2680236476948787,0.2714476964974593,0.23048333573169041,0.03432799392509059,0.18329306961255043,0.278307514366918,0.20664225068516695,0.33126382273098304,2.4473160120663806e-07,0.9871381068058662,-1.9883521611693447,0.012108220005539209,-2.01383528607471,-1.9742363329562003,0.6532877313883666,1.9178011362048806,-3.19366455078125,3.20281982421875,32.27736842105262,0.01617083315340691,32.25,32.29,0.13559322033898305,-0.0013333333333332925,0,1,0
0,0.01679687421607695,0.0003659158011370883,0.015825231063251018,0.017201338112229368,-0.016796866264153366,0.0003659156279063748,-0.01720132996882575,-0.01582522357131969,-1.1557137562077558e-05,2.517694182547052e-07,-1.1835430107856916e-05,-1.088859569922836e-05,-1.1557137562077558e-05,2.517694182547052e-07,-1.1835430107856916e-05,-1.088859569922836e-05,0.12413559322033943,28.321596907156295,-65.44,32.26,0.2698376342138886,0.0008059320650079123,0.2678650760627701,0.27106024472188833,0.20973581692072465,0.01741555282177476,0.17575332517566594,0.23543889933406634,0.21472320240239784,0.41183237122554345,1.515864669343614e-07,1.3785115201888214,-1.9720160026648559,0.0010099221290397584,-1.973750364670285,-1.9697004771449418,-0.5947329633323961,2.1997935721886597,-3.47442626953125,3.40423583984375,32.28111111111111,0.00993807989999709,32.27,32.29,0.16271186440677965,0.0006604747162021389,0,1,0
0,0.016836248486990224,0.0003704509932977529,0.016513284587740193,0.01788939163671854,-0.016836240516426182,0.00037045081792000286,-0.01788938316757878,-0.01651327677007272,-1.158422914230238e-05,2.5488987025053464e-07,-1.230884731217119e-05,-1.1362012903542639e-05,-1.158422914230238e-05,2.5488987025053464e-07,-1.230884731217119e-05,-1.1362012903542639e-05,0.7647619047619058,33.70492955999153,-70.96,39.9,0.27101280501509567,0.0009053364061026915,0.26895851036549945,0.2721925684945136,0.24191940988421468,0.02859282074415819,0.18954760855533406,0.28714711372810414,0.12199300289950576,0.2613179768247035,1.2407155391969127e-07,0.9063262228986839,-1.9571328083732322,0.008485279586871982,-1.968983752757687,-1.9418034751836586,0.6486476207193607,1.9248291504629547,-2.65045166015625,3.32183837890625,32.27666666666666,0.009428090415818758,32.27,32.29,0.16326530612244897,0.0,0,1,0
0,0.016850290395653264,0.0003879567009705827,0.015825231063251018,0.01788939163671854,-0.016850282418441553,0.00038795651730533497,-0.01788938316757878,-0.01582522357131969,-1.1593890717900633e-05,2.669347227090219e-07,-1.230884731217119e-05,-1.088859569922836e-05,-1.1593890717900633e-05,2.669347227090219e-07,-1.230884731217119e-05,-1.088859569922836e-05,-0.4415932203389828,29.879664302290635,-71.22,33.29,0.2709608556628269,0.0007063239509612531,0.2696631085744444,0.27222964043850784,0.2020358313972018,0.025634280412564926,0.15521039514825546,0.24359557638079732,0.1375337114243744,0.3010431486264774,1.36096156566623e-07,1.0547635819809353,-1.9217661866319447,0.010366112684228546,-1.9397056258296654,-1.9062549720609183,-0.4742946577427109,1.9380328458594138,-3.1097412109375,3.204345703125,32.29210526315789,0.014355980733669265,32.27,32.31,0.16271186440677965,3.508771929852534e-05,0,1,0
0,0.016759682133672137,0.00039192563093104265,0.015825231063251018,0.01788939163671854,-0.0167596741993559,0.0003919254453868372,-0.01788938316757878,-0.01582522357131969,-1.1531547442925436e-05,2.6966555637111995e-07,-1.230884731217119e-05,-1.088859569922836e-05,-1.1531547442925436e-05,2.6966555637111995e-07,-1.230884731217119e-05,-1.088859569922836e-05,0.49294915254237276,32.02594872351922,-69.52,38.8,0.27118142466290773,0.0008803809618609941,0.2693823211265894,0.2726618009585719,0.19327274831331215,0.028727185376524043,0.13950735165383477,0.23690776616020898,0.16266019554844058,0.4053493543553942,1.692243021267359e-07,1.7219794065692051,-1.901191513939572,0.0014740106851218648,-1.9050617554109879,-1.8998025765934066,0.5504933640411689,1.8455506589851507,-2.66265869140625,3.131103515625,32.29666666666667,0.009428090415822104,32.29,32.31,0.16271186440677965,-0.0014860681114553407,0,1,0
0,0.0167005100365808,0.0003811774038880204,0.015825231063251018,0.017201338112229368,-0.01670050213027763,0.0003811772234322067,-0.01720132996882575,-0.01582522357131969,-1.1490833911519294e-05,2.6227020787432884e-07,-1.1835430107856916e-05,-1.088859569922836e-05,-1.1490833911519294e-05,2.6227020787432884e-07,-1.1835430107856916e-05,-1.088859569922836e-05,0.08725423728813471,31.013713591988168,-69.51,37.28,0.2709590722448571,0.0008574857547227454,0.26886979793068544,0.2722151206271201,0.1902830737125348,0.017327465729299333,0.15539248869662173,0.214397892213037,0.17334159727605788,0.30341426264002674,7.723734940512372e-08,0.9994716036738356,-1.9070238572960672,0.0027174817544814733,-1.910518801039157,-1.902218395839298,-0.2563329843374399,1.8126477441187054,-2.98309326171875,2.95257568359375,32.27842105263158,0.009874559494363151,32.27,32.29,0.13559322033898305,0.00014035087719295453,0,1,0
0,0.016639661765707615,0.00033110332313208854,0.015825231063251018,0.017201338112229368,-0.016639653888211026,0.00033110316638219,-0.01720132996882575,-0.01582522357131969,-1.1448967083926874e-05,2.2781659274652307e-07,-1.1835430107856916e-05,-1.088859569922836e-05,-1.1448967083926874e-05,2.2781659274652307e-07,-1.1835430107856916e-05,-1.088859569922836e-05,-1.341666666666668,31.342013807908817,-67.95,37.68,0.271523270801137,0.0007177651291153957,0.2703803716631657,0.27294503476397114,0.20737822393422803,0.02158013503843976,0.17974655266639106,0.24972751459906217,0.12653577844137964,0.30627538104561886,1.2346178301925192e-07,1.0936505618843384,-1.905020893194022,0.004797805914319221,-1.9105238053751412,-1.895865331268953,0.12446798698482088,1.7960610580285716,-2.54974365234375,2.91595458984375,32.27555555555555,0.016063146994222604,32.25,32.29,0.16326530612244897,0.0020020639834880858,0,1,0
0,0.016620211824654077,0.0003170543223187931,0.015825231063251018,0.017201338112229368,-0.01662020395636542,0.00031705417221992874,-0.01720132996882575,-0.01582522357131969,-1.1435584496104972e-05,2.1815013737391695e-07,-1.1835430107856916e-05,-1.088859569922836e-05,-1.1435584496104972e-05,2.1815013737391695e-07,-1.1835430107856916e-05,-1.088859569922836e-05,0.664237288135595,33.54323998194072,-69.05,42.08,0.27163287975028516,0.0007009371488041534,0.27026223873753397,0.272706610066958,0.1992303077589445,0.025027913462467567,0.16638818889174078,0.24536762476200683,0.15994120328078337,0.33366087983617115,1.5678666187568524e-07,1.1991296729476675,-1.8908757944462598,0.002630718350556023,-1.8969895146351798,-1.8879685324600168,0.10907525755927225,2.135669205709636,-3.15399169921875,3.631591796875,32.28578947368421,0.00815364914990873,32.27,32.29,0.16271186440677965,0.0006315789473682954,0,1,0
0,0.0259775310266321,0.012671990788154421,0.008256642293870096,0.06398897777749324,-0.02597751872843073,0.012671984789020228,-0.06398894748403179,-0.00825663838503636,-1.787391485676351e-05,8.71899966863511e-06,-4.402780000122772e-05,-5.681006451771319e-06,-1.787391485676351e-05,8.71899966863511e-06,-4.402780000122772e-05,-5.681006451771319e-06,4.288440677966102,50.38371563944358,-197.61,208.1,0.27225106680874284,0.0011697317488468376,0.2698604355607795,0.2739786126441278,0.2744658610012263,0.06643671780727549,0.17325467638923647,0.3774470321057459,0.25805324844269506,0.5643010734759913,1.5849526224798183e-07,1.6773517380821898,-1.9419151605563885,0.03214348575305329,-2.002887832568234,-1.899453480226032,0.3073474246080418,2.743884276108094,-3.37982177734375,7.71942138671875,32.26777777777777,0.01749779527558153,32.25,32.29,0.16271186440677965,0.003137254901960747,0,1,0
0,0.04461190284458192,0.0012314876402610832,0.03853099737139378,0.04816374671424223,-0.04461188172455454,0.00123148705725406,-0.0481637239127121,-0.03853097913016968,-3.069534792297162e-05,8.473286089666112e-07,-3.313920430199936e-05,-2.651136344159949e-05,-3.069534792297162e-05,8.473286089666112e-07,-3.313920430199936e-05,-2.651136344159949e-05,-2.932983050847462,55.03471096899109,-209.02,82.22,0.2713116846956931,0.0014385232117147997,0.2691556908751586,0.27543006786882973,0.3873629697693709,0.04869059821771637,0.3038238678872466,0.4470408758537405,0.3908860535522775,0.5306415898559251,4.873255043946756e-08,1.8349348472845834,-2.0888555108152875,0.045045334341709,-2.156767528898783,-2.0120498533388016,0.3993797479783975,4.857664363565277,-6.31561279296875,8.71734619140625,32.2811111111111,0.009938079899997088,32.27,32.29,0.13559322033898305,-0.00033023735810106946,0,1,0
0,0.04478900799889068,0.0006585573658847695,0.04197126499383966,0.04747569318975305,-0.044788986795018575,0.0006585570541126003,-0.04747567071395907,-0.04197124512393483,-3.0817205633219863e-05,4.5312228764354774e-07,-3.2665787097685084e-05,-2.8878449463170872e-05,-3.0817205633219863e-05,4.5312228764354774e-07,-3.2665787097685084e-05,-2.8878449463170872e-05,-1.7167006802721072,23.01095089046076,-66.66,48.53,0.27266545003843146,0.001631475043658683,0.27055376987811025,0.2764728822248894,0.5164864156825081,0.04407217785892638,0.45168301427604374,0.5954390902924729,0.42131260114953295,0.7389117925202376,1.3382111418991371e-07,2.3386143310349325,-2.169154786388371,0.015078255728581357,-2.1837064503642036,-2.1304413616045355,-0.04941765836967054,4.812455239448901,-6.671142578125,7.88421630859375,32.27842105263158,0.009874559494363151,32.27,32.29,0.16326530612244897,0.00014035087719295453,0,1,0
0,0.04492942708552109,0.00043527400311608045,0.044035425567307176,0.04747569318975305,-0.04492940581517228,0.0004352737970500243,-0.04747567071395907,-0.04403540472019392,-3.091382138920236e-05,2.9949152839364594e-07,-3.2665787097685084e-05,-3.02987010761137e-05,-3.091382138920236e-05,2.9949152839364594e-07,-3.2665787097685084e-05,-3.02987010761137e-05,1.8826779661016952,19.321081222544425,-43.86,30.39,0.27567579454335145,0.0014369740306428539,0.2724676307201223,0.27769655621608874,0.47173991758425615,0.05838755400398157,0.35546304326013695,0.577843951055866,0.25552824412213376,0.5920101998502834,1.7381808170569002e-07,2.5863527385931695,-2.001007406206166,0.07816838661388593,-2.119949869876474,-1.8677031544223146,-5.1717537439945795,4.291199028256289,-11.59210205078125,2.020263671875,32.26555555555555,0.00831479419283228,32.25,32.27,0.18983050847457628,-0.0009907120743035606,0,1,0
0,0.04485365138021333,0.00034264183644498096,0.044035425567307176,0.04678763966526387,-0.04485363014573799,0.0003426416742325554,-0.04678761751520604,-0.04403540472019392,-3.0861683697460464e-05,2.3575569998180315e-07,-3.219236989337081e-05,-3.02987010761137e-05,-3.0861683697460464e-05,2.3575569998180315e-07,-3.219236989337081e-05,-3.02987010761137e-05,-2.6922033898305098,17.316764471322085,-43.47,29.65,0.27700517202020264,0.0007665044582218711,0.27605718859597517,0.2783295168092469,0.2495815711999352,0.05558308948478084,0.1794012183476817,0.3450725131075153,0.12531076109164999,0.24469327576365585,1.1460560678244747e-07,0.6939695094179905,-1.7300357053608348,0.06567906547823629,-1.8515091880021117,-1.6418244288001447,4.476543454910922,3.9568971624812788,-0.34332275390625,11.81640625,32.26578947368421,0.008153649149911627,32.25,32.27,0.16271186440677965,7.01754385965022e-05,0,1,0
0,0.04485453690598487,0.00031426559833062944,0.044035425567307176,0.04541153261628553,-0.044854515671090306,0.00031426544955199295,-0.045411511117699976,-0.04403540472019392,-3.086229298601172e-05,2.1623134782180742e-07,-3.124553548474225e-05,-3.02987010761137e-05,-3.086229298601172e-05,2.1623134782180742e-07,-3.124553548474225e-05,-3.02987010761137e-05,0.4053559322033895,24.99086033188033,-63.29,31.84,0.2776874491782807,0.0007839890660244398,0.27655289754192997,0.27942625844301555,0.19267918712475693,0.03190379946069332,0.15196421536112753,0.27479175997533534,0.2083543295599569,0.3913784647948714,2.0003634881859966e-07,1.2718614964839912,-1.64290737730773,0.01337313139209587,-1.6730241948036215,-1.6301453358235,0.7852490999444908,2.072849783166241,-2.33306884765625,5.29327392578125,32.26777777777777,0.014740554623801704,32.25,32.29,0.16271186440677965,-0.002641898864809084,0,1,0
0,0.04482177245243777,0.0003677800789143955,0.043347372042818,0.0460995861407747,-0.04482175123305442,0.00036777990480110176,-0.046099564316453005,-0.04334735152144089,-3.083974930961578e-05,2.5305213993548286e-07,-3.1718952689056526e-05,-2.9825283871799426e-05,-3.083974930961578e-05,2.5305213993548286e-07,-3.1718952689056526e-05,-2.9825283871799426e-05,0.40693877551020236,31.959087656348768,-73.69,58.83,0.27883318970733445,0.0018709255193392791,0.2752089821257577,0.2828869839032333,0.32420196418027314,0.07781231838428793,0.20756831575090642,0.4435469332407376,0.3186996559103445,0.6798276718155636,8.671630880030534e-08,2.2158481970636643,-1.7287397692044033,0.028813825151530303,-1.7702188522647524,-1.6788927715053807,0.7956185352713535,2.1405649709153383,-2.34527587890625,4.8431396484375,32.24555555555556,0.00831479419283228,32.23,32.25,0.13605442176870747,-0.0004953560371517803,0,1,0
0,0.04390990228919082,0.001297223833273645,0.03853099737139378,0.04747569318975305,-0.043909881501502566,0.001297223219145999,-0.04747567071395907,-0.03853097913016968,-3.0212334423975262e-05,8.925585854301083e-07,-3.2665787097685084e-05,-2.651136344159949e-05,-3.0212334423975262e-05,8.925585854301083e-07,-3.2665787097685084e-05,-2.651136344159949e-05,1.6636949152542375,25.503141612560462,-73.59,51.29,0.280416444661207,0.0011575292515561655,0.27823731695689274,0.2826670455735695,0.42091644090182895,0.03806433126609657,0.35293142354648116,0.4702355887271746,0.3096059010960735,0.5330867129403555,2.4717135183038863e-07,1.9143717459406808,-1.7641344064316824,0.013613171294099,-1.7770714335285962,-1.7340264034866284,-0.9140284422313605,3.4291070783320654,-5.77239990234375,5.8502197265625,32.24894736842106,0.017739262680374054,32.23,32.27,0.16271186440677965,-0.000350877192982511,0,1,0
0,0.04407287065707522,0.00037456789530868485,0.04197126499383966,0.04541153261628553,-0.04407284979223499,0.0003745677179819246,-0.045411511117699976,-0.04197124512393483,-3.032446527770901e-05,2.577225165070859e-07,-3.124553548474225e-05,-2.8878449463170872e-05,-3.032446527770901e-05,2.577225165070859e-07,-3.124553548474225e-05,-2.8878449463170872e-05,-0.21671186440677775,28.27040725699402,-80.27,36.87,0.28008866996710413,0.0007606506738085244,0.27837639256055635,0.281045196681336,0.31733979042060506,0.05115734227044425,0.2466636158523637,0.39668086347267767,0.14932321573861826,0.34803771009013584,7.294158965720499e-08,1.1959083397760608,-1.6782911012810537,0.030897157811401888,-1.7286359377447018,-1.6290463883309514,-0.20707118892166654,2.765430647755413,-3.7445068359375,5.8258056640625,32.24666666666667,0.010000000000001561,32.23,32.27,0.13559322033898305,-0.0013415892672860716,0,1,0
0,0.044593306803379494,0.0004687899333489388,0.043347372042818,0.0460995861407747,-0.04459328569215586,0.0004687897114158768,-0.046099564316453005,-0.04334735152144089,-3.0682552863395596e-05,3.22552260482203e-07,-3.1718952689056526e-05,-2.9825283871799426e-05,-3.0682552863395596e-05,3.22552260482203e-07,-3.1718952689056526e-05,-2.9825283871799426e-05,0.172983050847459,25.704697465237242,-50.65,71.78,0.279968139792971,0.0011391210392013283,0.27747457507709805,0.28214259934536184,0.24048356876789925,0.02517177051677871,0.2027906259706251,0.28949707501996624,0.2471106974909171,0.48991964033619606,1.1049972581389511e-07,1.4843381874487216,-1.5970574852511576,0.01254044053833568,-1.6240927363370505,-1.5836057221247157,-0.014938373423687578,2.342453474058789,-3.936767578125,4.59136962890625,32.258421052631576,0.009874559494366657,32.25,32.27,0.13559322033898305,-0.0001403508771930044,0,1,0
0,0.04455497618783992,0.0003366155289078865,0.043347372042818,0.04541153261628553,-0.04455495509476246,0.0003366153695484162,-0.045411511117699976,-0.04334735152144089,-3.065617937324902e-05,2.3160928176722056e-07,-3.124553548474225e-05,-2.9825283871799426e-05,-3.065617937324902e-05,2.3160928176722056e-07,-3.124553548474225e-05,-2.9825283871799426e-05,-2.818503401360543,29.13995992493571,-84.2,59.01,0.2814980074711135,0.0008746276020962993,0.27959525606290886,0.2832826557834402,0.28419496547775525,0.024157886749472106,0.235204841682383,0.3266189340907198,0.14310318984332904,0.3290942543430174,9.175137538619538e-08,1.1951246988471809,-1.5852200340942288,0.0012990099305382743,-1.586826324511404,-1.5833991135321603,-0.12579603171526055,2.3036131409606586,-3.11431884765625,4.74395751953125,32.23444444444445,0.00831479419283228,32.23,32.25,0.16326530612244897,0.0001651186790505934,0,1,0
0,0.04459710191382902,0.0003110422762169618,0.043347372042818,0.04541153261628553,-0.0445970808008086,0.0003110421289643004,-0.045411511117699976,-0.04334735152144089,-3.068516410004377e-05,2.1401353178083933e-07,-3.124553548474225e-05,-2.9825283871799426e-05,-3.068516410004377e-05,2.1401353178083933e-07,-3.124553548474225e-05,-2.9825283871799426e-05,4.31020338983051,26.566658165082178,-57.88,48.08,0.2816303293095169,0.0011882755833110964,0.27954689626031637,0.284442776896083,0.27504224470194244,0.032420443714954617,0.2032400681769094,0.31898956730504474,0.2747141041712945,0.5420850068118582,1.2580265273953728e-07,1.9845624888783888,-1.5711789142314314,0.012697241198111593,-1.5862011974246877,-1.5461440092256862,0.597473409572251,3.0426356911198438,-4.00543212890625,5.07049560546875,32.23421052631579,0.008153649149911627,32.23,32.25,0.16271186440677965,0.000350877192982511,0,1,0
0,0.04459795581368015,0.0002657266275033034,0.044035425567307176,0.04472347909179635,-0.044597934700255484,0.00026572650170383503,-0.04472345791894695,-0.04403540472019392,-3.068575162828961e-05,1.8283396949077626e-07,-3.0772118280427976e-05,-3.02987010761137e-05,-3.068575162828961e-05,1.8283396949077626e-07,-3.0772118280427976e-05,-3.02987010761137e-05,-1.459559322033898,21.39617341383631,-57.29,31.77,0.282450582755076,0.0006555448604815651,0.2815686445253858,0.28448059747278853,0.25210714659915534,0.02970186559355046,0.21454071064163036,0.31964329011983433,0.13998437774501035,0.2722931520823148,9.872957296153118e-08,0.9884135309698667,-1.5133530114287435,0.016554497922986203,-1.5424813371940844,-1.4897311223925593,0.22756900248821943,3.1280372948412665,-4.39300537109375,4.75006103515625,32.233333333333334,0.015275252316519442,32.21,32.25,0.16271186440677965,0.0022497420020641005,0,1,0
0,0.04459710191382902,0.000278251914821629,0.043347372042818,0.04472347909179635,-0.044597080800808604,0.0002782517830924782,-0.04472345791894695,-0.04334735152144089,-3.068516410004378e-05,1.9145202941551359e-07,-3.0772118280427976e-05,-2.9825283871799426e-05,-3.068516410004378e-05,1.9145202941551359e-07,-3.0772118280427976e-05,-2.9825283871799426e-05,-0.9941496598639461,23.858127177969923,-52.79,51.01,0.282424860854282,0.0007021002755956031,0.28091367088086416,0.2836031522566737,0.22718615002232767,0.021304836192697123,0.18748395634953102,0.2567377811640867,0.15556905829115208,0.3883875486676573,8.945079166267078e-08,1.5209637852901858,-1.4956059930747445,0.01147535177578213,-1.522281143119386,-1.4855297348825023,-0.04234171978593169,2.5937263426814225,-3.71246337890625,4.46929931640625,32.23555555555556,0.016063146994223287,32.21,32.25,0.16326530612244897,-0.002002063983488093,0,1,0
0,0.04455965682406086,0.0003142655983306293,0.043347372042818,0.04541153261628553,-0.04455963572876766,0.0003142654495519933,-0.045411511117699976,-0.04334735152144089,-3.065939989844843e-05,2.1623134782180758e-07,-3.124553548474225e-05,-2.9825283871799426e-05,-3.065939989844843e-05,2.1623134782180758e-07,-3.124553548474225e-05,-2.9825283871799426e-05,-0.3722033898305078,21.68058574383821,-52.98,38.25,0.28237898152571134,0.0011797402335390382,0.2790606310197513,0.28366293718904917,0.3362774529620492,0.07263386158615542,0.19091443242524261,0.47247213049151726,0.418631473904282,0.6029890366169857,2.0839552883344936e-07,2.0277510860078682,-1.5977749033492323,0.04623730752624724,-1.6784357917158983,-1.5280849045591187,-0.4543867655486682,2.153506667434842,-3.85284423828125,3.118896484375,32.22578947368422,0.00815364914990873,32.21,32.23,0.16271186440677965,-0.001052631578947159,0,1,0
0,0.044365505298650014,0.0020399516042746224,0.032338515650991204,0.05091596081219893,-0.044365484295271346,0.0020399506385271222,-0.05091593670772422,-0.03233850034139241,-3.0525813383588825e-05,1.4035945621368724e-06,-3.5032873119256466e-05,-2.2250608602771e-05,-3.0525813383588825e-05,1.4035945621368724e-06,-3.5032873119256466e-05,-2.2250608602771e-05,-0.324169491525423,20.374899294460526,-51.36,38.91,0.2824483812776426,0.0011974463459272114,0.2800033603125329,0.28433995935335227,0.5074734172031437,0.06113752720015445,0.3893314167430947,0.6162896367563379,0.5002688862180675,0.8303332749167119,2.0588947080568687e-07,2.4757287432138337,-1.771954035575189,0.050278902425279735,-1.851985626943672,-1.6883267473116015,0.5647967625877482,2.352445397562285,-4.3914794921875,5.07354736328125,32.2188888888889,0.009938079899997088,32.21,32.23,0.16271186440677965,0.0009907120743032085,0,1,0
0,0.026417510831407486,0.01070948387942857,0.0027522140979566985,0.06811729892442829,-0.026370691984861028,0.010824220912141887,-0.06811726667654996,0.0034402659937651497,-1.8144438973514508e-05,7.4476398226086875e-06,-4.686830322711338e-05,2.3670860215713828e-06,-1.8144438973514508e-05,7.4476398226086875e-06,-4.686830322711338e-05,2.3670860215713828e-06,-3.4446101694915203,73.38450699026303,-194.11,206.53,0.28092153871947334,0.0021491452458625125,0.27795228322346455,0.2855532466492,0.5987921889382776,0.04402145433578782,0.5318782856791674,0.6785969243276181,0.3244813199148741,0.8616766117011208,4.4860440695515535e-08,3.0808136268890944,-1.9215739632866982,0.03291938379418853,-1.9668881121643402,-1.860480464384711,-1.2018397783227357,3.84658274791439,-5.66864013671875,6.719970703125,32.214210526315796,0.00815364914990873,32.21,32.23,0.08135593220338982,0.00035087719298238635,0,1,0
0,0.020931805180378113,0.0009006059820244008,0.017201338112229368,0.024081873357121114,-0.020931795270908507,0.0009006055556623378,-0.02408186195635605,-0.01720132996882575,-1.4402188691792155e-05,6.196645333882227e-07,-1.656960215099968e-05,-1.1835430107856916e-05,-1.4402188691792155e-05,6.196645333882227e-07,-1.656960215099968e-05,-1.1835430107856916e-05,2.6476190476190533,28.099807182947377,-96.81,50.14,0.2754940383880341,0.0008891240947627947,0.27408555594941963,0.27771963719389386,0.43009789662067743,0.032111775947955334,0.3965930276025964,0.522984315182042,0.2897751557518517,0.4555080835625792,4.074483257454631e-07,1.390653009475737,-1.9666140202944173,0.010675238266093835,-1.976033563102328,-1.9402694895427581,0.748112302264268,2.691022477099596,-3.64837646484375,5.828857421875,32.222222222222236,0.00974996043043375,32.21,32.23,0.08163265306122448,0.001589267285861397,0,1,0
0,0.021487725609384837,0.00037596670186229163,0.020641605734675238,0.022705766308142764,-0.021487715436733168,0.00037596652387331234,-0.022705755558849988,-0.020641595962590898,-1.4784691340139095e-05,2.5868496937509034e-07,-1.5622767742371126e-05,-1.4202516129428297e-05,-1.4784691340139095e-05,2.5868496937509034e-07,-1.5622767742371126e-05,-1.4202516129428297e-05,1.272610169491526,21.488188532478826,-44.79,30.0,0.27469181904986284,0.0009599585303124708,0.27294607810543997,0.27642387638379157,0.28010034471641615,0.0596600322411901,0.193862099151755,0.3917202867027706,0.1284912730495546,0.2832432974581652,1.2256537740285012e-07,0.9757776026976988,-1.8530866142403617,0.05242244835881083,-1.9336252585424296,-1.7648413917644066,0.12045924184340105,1.9827916740715301,-2.46429443359375,4.24652099609375,32.21526315789474,0.008806947647725358,32.21,32.23,0.16271186440677965,-0.000666666666666534,0,1,0
0,0.021825806698591927,0.00047332319049748936,0.019953552210186066,0.023393819832631935,-0.021825796365886975,0.0004733229664183059,-0.02339380875760302,-0.01995354276383787,-1.5017309004880737e-05,3.256713810873881e-07,-1.6096184946685404e-05,-1.372909892511402e-05,-1.5017309004880737e-05,3.256713810873881e-07,-1.6096184946685404e-05,-1.372909892511402e-05,-0.6205423728813557,23.601134152094343,-63.21,28.63,0.27392152131896713,0.0006186342378553764,0.2726620185734434,0.2750182147984875,0.09916640546352412,0.03959404418217339,0.05601291783593396,0.18350639200764796,0.08037126517857815,0.24506552340510526,1.949137806711576e-07,0.9996329873249481,-1.697182485189441,0.028884919780197898,-1.7553260826208652,-1.6660915439757993,-0.2786445203420726,1.9982993103429014,-3.58734130859375,3.57513427734375,32.2188888888889,0.009938079899997088,32.21,32.23,0.13559322033898305,0.00033023735810106946,0,1,0
0,0.022166481113272858,0.000325297865057444,0.021329659259164413,0.022705766308142764,-0.022166470619286813,0.00032529771105594676,-0.022705755558849988,-0.02132964916134393,-1.5251711014665318e-05,2.2382213063908276e-07,-1.5622767742371126e-05,-1.4675933333742575e-05,-1.5251711014665318e-05,2.2382213063908276e-07,-1.5622767742371126e-05,-1.4675933333742575e-05,0.5851186440677962,28.446169023342453,-61.76,35.97,0.27516238910348173,0.0005407395607107433,0.27411478321032146,0.27622059659454995,0.17804270661073893,0.04354471457335321,0.105231169327783,0.28526796169014373,0.2419014311368196,0.5544393703759277,3.0442887188897316e-07,2.138918483659409,-1.7291016666274228,0.04947065646688294,-1.8247554237084174,-1.667946440519222,0.700351905645216,2.3214297187404296,-3.192138671875,4.18243408203125,32.23222222222223,0.0062853936105480715,32.23,32.25,0.16271186440677965,0.0006604747162023736,0,1,0
0,0.022701085671921768,0.0006495131193648109,0.021329659259164413,0.02476992688161029,-0.022701074924844834,0.0006495128118743442,-0.02476991515510908,-0.02132964916134393,-1.5619547217171686e-05,4.4689936784121726e-07,-1.7043019355313955e-05,-1.4675933333742575e-05,-1.5619547217171686e-05,4.4689936784121726e-07,-1.7043019355313955e-05,-1.4675933333742575e-05,1.914183673469387,30.091354700893277,-78.97,36.11,0.27518400349936223,0.0010343596605517107,0.27361405184487936,0.27760995378101017,0.4382942229596914,0.07835698807755655,0.3305969811760864,0.5654409226916167,0.4592131485612005,0.7388473018648943,1.4108205359519843e-07,2.5107810716929286,-1.9903309125620559,0.09379768763776085,-2.1449997169071153,-1.839780511131403,-0.4157184926114341,2.6133502824335104,-4.10308837890625,4.06341552734375,32.22894736842105,0.012093816097974346,32.21,32.25,0.13605442176870747,-7.0175438596577e-05,0,1,0
0,0.03141174967923026,0.009619250645970056,0.017201338112229368,0.05573233548362315,-0.031411734808378146,0.009619246092054539,-0.05573230909899543,-0.01720132996882575,-2.161294461328647e-05,6.6185530432307085e-06,-3.8346793549456406e-05,-1.1835430107856916e-05,-2.161294461328647e-05,6.6185530432307085e-06,-3.8346793549456406e-05,-1.1835430107856916e-05,-8.819898305084747,55.60444846540787,-142.53,133.75,0.27465188487613257,0.003368295024179998,0.26661819365461026,0.2787318008673467,0.7105388696536438,0.0868673941382152,0.5509283017374325,0.8543884488329277,0.7019336742059267,1.3250350660888777,3.970173878542482e-08,4.863343361504366,-2.2805223974124917,0.06630682411085016,-2.3767145959598834,-2.1615591112982138,-0.15300214568021836,2.9769113205091386,-4.1351318359375,5.19561767578125,32.24111111111111,0.01662958838566161,32.21,32.25,0.13559322033898305,-0.0013209494324045125,0,1,0
0,0.043756484949271035,0.0009008049811833138,0.04059515794486131,0.04747569318975305,-0.04375646423421303,0.0009008045547270404,-0.04747567071395907,-0.04059513872642877,-3.0106775182472794e-05,6.198014553312383e-07,-3.2665787097685084e-05,-2.7931615054542318e-05,-3.0106775182472794e-05,6.198014553312383e-07,-3.2665787097685084e-05,-2.7931615054542318e-05,12.422711864406788,44.73362086124546,-79.25,158.46,0.27681177545526997,0.0019605215228430356,0.2722092227062147,0.27997043806204003,0.9243461085988597,0.08389104583040918,0.68895879008533,1.039144164859641,0.7376969437293027,1.0073795385631763,4.980975241153374e-07,3.1589069083276513,-2.4096985009596197,0.011240206160154018,-2.4220886553400747,-2.3843713685510437,0.5306712451111294,3.6713164110860435,-5.33599853515625,5.99212646484375,32.252105263157894,0.006137844099838118,32.25,32.27,0.16271186440677965,0.0005964912280702686,0,1,0
0,0.04391372902556066,0.0006043279615209267,0.041283211469350475,0.0460995861407747,-0.04391370823606086,0.0006043276754218751,-0.046099564316453005,-0.041283191925181796,-3.0214967420928843e-05,4.158095901690034e-07,-3.1718952689056526e-05,-2.8405032258856593e-05,-3.0214967420928843e-05,4.158095901690034e-07,-3.1718952689056526e-05,-2.8405032258856593e-05,-6.854000000000006,34.2574786727942,-117.27,43.15,0.2780356810233712,0.001342504542518898,0.27538403216892504,0.2802455944467252,0.8297873009940644,0.06874327816493025,0.7135480531509211,0.9611215602640094,0.41702422930427363,0.8034686820059529,1.1729043336572431e-07,2.566777425000824,-2.2692846334056216,0.08524135102325094,-2.3865078598820677,-2.112533148727939,-0.2968149306498216,1.5087073591692097,-2.6641845703125,2.60162353515625,32.25222222222223,0.01474055462380408,32.23,32.27,0.16271186440677965,-0.0019814241486071213,0,1,0
0,0.04397925793265488,0.00032610298568717635,0.04059515794486131,0.04472347909179635,-0.04397923711213255,0.0003261028313045221,-0.04472345791894695,-0.04059513872642877,-3.0260054773720636e-05,2.2437609620149606e-07,-3.0772118280427976e-05,-2.7931615054542318e-05,-3.0260054773720636e-05,2.2437609620149606e-07,-3.0772118280427976e-05,-2.7931615054542318e-05,1.3119047619047608,25.43907376306973,-50.1,33.08,0.27995560759655636,0.0008874754813194927,0.2787126458772234,0.2818487081689714,0.5423913596725534,0.09166421888115169,0.3829233736046017,0.6840904030653487,0.27420294348046886,0.4589088111536474,1.2440064267593698e-07,1.240330673381834,-1.9060982117450262,0.10814102971062298,-2.0903064724312093,-1.7416732623611388,0.0019243869828822892,1.3281900923630712,-1.98211669921875,2.80914306640625,32.25444444444444,0.008314794192832278,32.25,32.27,0.13605442176870747,0.0001651186790505934,0,1,0
0,0.024221343666139185,0.011276398498822537,0.003440267622445873,0.05779649605709067,-0.024221332199346534,0.011276393160385274,-0.05779646869525452,-0.0034402659937651497,-1.6665565097820148e-05,7.758758384399875e-06,-3.976704516239923e-05,-2.3670860215713828e-06,-1.6665565097820148e-05,7.758758384399875e-06,-3.976704516239923e-05,-2.3670860215713828e-06,-1.7109152542372816,61.05413640126835,-127.53,194.07,0.2811391244200968,0.0011980265166951502,0.2786411420749462,0.2833874681421188,0.3738374371825196,0.023086051409123426,0.3264492162900763,0.4181557927810196,0.3056187212915993,0.49605385664406443,1.2483054057099707e-07,1.6183348540751439,-1.686950246086542,0.02356057172757904,-1.7347041726628722,-1.6600265699708474,-0.7615631330693626,7.5620291209431505,-11.40594482421875,10.14556884765625,32.24894736842106,0.013724636642534038,32.23,32.27,0.13559322033898305,0.0002456140350877577,0,1,0
0,0.021629219977309353,0.0020129239190788102,0.014449124014272667,0.026146033930588636,-0.021629209737671785,0.0020129229661266716,-0.02614602155261514,-0.01444911717381363,-1.4882046946505234e-05,1.3849980856868916e-06,-1.7989853763942512e-05,-9.941761290599808e-06,-1.4882046946505234e-05,1.3849980856868916e-06,-1.7989853763942512e-05,-9.941761290599808e-06,2.854508474576271,30.595680225927595,-78.9,52.32,0.27812125177043084,0.0013131662331389766,0.27538991881740993,0.28019187659607814,0.505620677386691,0.1592516734283938,0.2942471710162663,0.7699817409544831,0.642992045445798,0.8993937738017154,1.3461614667420463e-07,3.123962521942955,-1.9396473643920369,0.12402833935641627,-2.150702136785587,-1.7511011585424936,-0.054246107687907226,4.196480488655755,-7.59124755859375,7.958984375,32.23777777777779,0.009749960430437216,32.23,32.25,0.13559322033898305,0.0002683178534572143,0,1,0
0,0.02437476100605903,0.0019997608513039737,0.01926549868569689,0.028898248028545334,-0.024374749466636075,0.001999759904583452,-0.02889823434762726,-0.01926548956508484,-1.6771124339322654e-05,1.3759411990866996e-06,-1.9883522581199616e-05,-1.3255681720799745e-05,-1.6771124339322654e-05,1.3759411990866996e-06,-1.9883522581199616e-05,-1.3255681720799745e-05,-3.0084406779661004,25.577608207889806,-58.17,51.75,0.27514962174156576,0.004108303171078868,0.26891892746808854,0.28013887566748347,0.8061531477262759,0.07223457225517599,0.6796229411975332,0.9279369725984085,0.6334075071805194,1.1419613315601205,4.028338196349068e-08,3.5376311429390253,-2.357522222077993,0.09535121068539876,-2.478181475028673,-2.176036347616505,1.2254066561942656,2.8049482568475197,-3.497314453125,6.02874755859375,32.258421052631576,0.009874559494366657,32.25,32.27,0.13559322033898305,0.00042105263157901315,0,1,0
0,0.025406493407668214,0.00022825001472246377,0.02476992688161029,0.026146033930588636,-0.02540648137980582,0.00022824990666505724,-0.02614602155261514,-0.02476991515510908,-1.748101078243467e-05,1.5704807839597354e-07,-1.7989853763942512e-05,-1.7043019355313955e-05,-1.748101078243467e-05,1.5704807839597354e-07,-1.7989853763942512e-05,-1.7043019355313955e-05,3.358367346938776,28.968637933617146,-54.24,38.17,0.27136323196531975,0.0013256745131656968,0.2684782655663439,0.27373929948561754,0.7488995363926538,0.045327226921827564,0.6692624202557527,0.809753947887061,0.4593554544340581,0.835985591106795,1.0722269294660691e-07,3.3023106301554517,-2.450496406572791,0.03471443936339071,-2.485153720287955,-2.3778279288138515,0.09553166240379769,0.8106288239438589,-2.79693603515625,0.81939697265625,32.24555555555556,0.01571348402637018,32.23,32.27,0.16326530612244897,0.0008255933952529671,0,1,0
0,0.025476702950983452,0.00026552040935665235,0.02476992688161029,0.026146033930588636,-0.025476690889882646,0.00026552028365481214,-0.02614602155261514,-0.02476991515510908,-1.7529318660425925e-05,1.826920805025065e-07,-1.7989853763942512e-05,-1.7043019355313955e-05,-1.7529318660425925e-05,1.826920805025065e-07,-1.7989853763942512e-05,-1.7043019355313955e-05,0.1644067796610167,23.83292808821986,-55.85,34.16,0.27166054377312143,0.0008591032561974892,0.26987206985594625,0.27287751307381325,0.5525962124497505,0.07635138548367662,0.4337929400519124,0.6790088694716907,0.3188260068384034,0.6208204849486899,1.7816834940731496e-07,2.3916062491932877,-2.2433295824526587,0.07333886557509259,-2.36513670164783,-2.1288907876081318,0.21190548653046487,0.18849806894483104,-0.677490234375,0.61187744140625,32.25842105263157,0.009874559494366657,32.25,32.27,0.13559322033898305,0.000701754385965022,0,1,0
0,0.02562534477692115,0.0015788028029110237,0.018577445161207715,0.03096240860201286,-0.025625332645450673,0.0015788020554791454,-0.03096239394388635,-0.018577436366331808,-1.7631592095812796e-05,1.0862998044702854e-06,-2.1303774194142445e-05,-1.2782264516485466e-05,-1.7631592095812796e-05,1.0862998044702854e-06,-2.1303774194142445e-05,-1.2782264516485466e-05,-1.2202372881355963,22.433478453795672,-48.58,45.76,0.2712944467215068,0.0010644954955507978,0.26840480966801006,0.2724206032275286,0.35492496223415754,0.052435359078719615,0.2672114532966879,0.4259277158187366,0.2152715969660591,0.42498129286157466,7.08358136591869e-08,1.271218684641486,-2.0598456061788166,0.030475450115260178,-2.1188684753361944,-2.0189588493976647,-0.26191477075778585,1.8993147537003865,-3.65142822265625,3.18756103515625,32.25999999999999,0.016666666666669265,32.23,32.27,0.13559322033898305,0.002332301341589632,0,1,0
0,0.022499818314418163,0.0004909092683666015,0.020641605734675238,0.023393819832631935,-0.022499807662624553,0.0004909090359618725,-0.02339380875760302,-0.020641595962590898,-1.5481064633596773e-05,3.3777153249033317e-07,-1.6096184946685404e-05,-1.4202516129428297e-05,-1.5481064633596773e-05,3.3777153249033317e-07,-1.6096184946685404e-05,-1.4202516129428297e-05,1.3726870748299302,26.392959235398326,-54.08,39.05,0.27092430587958494,0.0009156102317601821,0.2693963298844566,0.27250585242517644,0.28162782492416133,0.028535960400394984,0.2239135724308528,0.32583424742386136,0.22248714532653815,0.3439893135692155,1.3030304479855204e-07,1.041564075232131,-1.9998035438523114,0.00883030836849797,-2.0161376405692284,-1.9860092590237888,0.44481689225946996,2.962264076230018,-4.681396484375,5.24444580078125,32.26111111111111,0.009938079900000618,32.25,32.27,0.16326530612244897,-0.0006604747162023736,0,1,0
0,0.022799379032563103,0.00031738717409990054,0.022017712783653588,0.023393819832631935,-0.02279936823895242,0.0003173870238434601,-0.02339380875760302,-0.02201770236009696,-1.5687178246359446e-05,2.1837915699819708e-07,-1.6096184946685404e-05,-1.514935053805685e-05,-1.5687178246359446e-05,2.1837915699819708e-07,-1.6096184946685404e-05,-1.514935053805685e-05,-1.3564067796610169,21.025709878677738,-47.22,25.35,0.2715710758487363,0.0007460253105116694,0.2704760574405077,0.2727657990264637,0.26410540826471,0.024229603612096064,0.21744515610432205,0.3040200807238841,0.1677906238836115,0.3289180834989163,1.8390822997815803e-07,1.1608314183330695,-1.9596029814608074,0.01702354614463456,-1.9841965049157442,-1.929007004587356,-0.6864202229615772,2.0338906778620456,-3.76129150390625,3.48968505859375,32.274210526315784,0.00815364914990873,32.27,32.29,0.16271186440677965,0.0007719298245612499,0,1,0
0,0.02304049504978617,0.0004416315094041388,0.022017712783653588,0.02476992688161029,-0.023040484142027143,0.0004416313003283342,-0.02476991515510908,-0.02201770236009696,-1.5853078814740198e-05,3.038658288603707e-07,-1.7043019355313955e-05,-1.514935053805685e-05,-1.5853078814740198e-05,3.038658288603707e-07,-1.7043019355313955e-05,-1.514935053805685e-05,-2.2838644067796623,19.442957087865967,-45.6,27.9,0.27143779219765996,0.0010320158976902841,0.27045003536684264,0.2739284633961247,0.19258798920281828,0.02600604158640191,0.15292605587014663,0.24132392714730738,0.11759451708665132,0.2631557166980442,9.474804230080736e-08,1.0893904058931634,-1.8897439758534196,0.02163696896518785,-1.9250263937674235,-1.8545726502008248,0.7190738669693415,1.9005665623827068,-2.349853515625,3.85284423828125,32.26555555555555,0.00831479419283228,32.25,32.27,0.16271186440677965,0.0008255933952529671,0,1,0
