,net_acc_mean,net_acc_std,net_acc_min,net_acc_max,ACC_x_mean,ACC_x_std,ACC_x_min,ACC_x_max,ACC_y_mean,ACC_y_std,ACC_y_min,ACC_y_max,ACC_z_mean,ACC_z_std,ACC_z_min,ACC_z_max,BVP_mean,BVP_std,BVP_min,BVP_max,EDA_mean,EDA_std,EDA_min,EDA_max,EDA_phasic_mean,EDA_phasic_std,EDA_phasic_min,EDA_phasic_max,EDA_smna_mean,EDA_smna_std,EDA_smna_min,EDA_smna_max,EDA_tonic_mean,EDA_tonic_std,EDA_tonic_min,EDA_tonic_max,Resp_mean,Resp_std,Resp_min,Resp_max,TEMP_mean,TEMP_std,TEMP_min,TEMP_max,BVP_peak_freq,TEMP_slope,0,1,2
0,0.04042197440468378,0.008348898468119354,0.008256642293870096,0.06398897777749324,0.04042195526823925,0.008348894515609988,0.00825663838503636,0.06398894748403179,2.7812455622163896e-05,5.744483577517083e-06,5.681006451771319e-06,4.402780000122772e-05,2.7812455622163896e-05,5.744483577517083e-06,5.681006451771319e-06,4.402780000122772e-05,0.24996610169491718,118.96236524240199,-277.9,288.48,0.24876618620673643,0.007554955785716539,0.2361321221965161,0.2592983603974178,0.08123987571189367,0.019053352633375938,0.05010535131289271,0.11035311896999132,0.034198520755494045,0.08340651256281713,3.9899964221490336e-08,0.3393707754086164,-1.1435079857513064,0.0031367149820112476,-1.1464942417876103,-1.1365730642500549,0.3644569340178156,3.5382812447010275,-3.71246337890625,8.00628662109375,29.850000000000012,1.0658141036401503e-14,29.85,29.85,0.16271186440677965,0.0,0,1,0
0,0.042213013529470995,0.0018618807417107026,0.036466836797926255,0.05091596081219893,0.042212993545118364,0.0018618798602649527,0.03646681953391059,0.05091593670772422,2.9044785237659663e-05,1.2810723935491442e-06,2.5091111828656657e-05,3.5032873119256466e-05,2.9044785237659663e-05,1.2810723935491442e-06,2.5091111828656657e-05,3.5032873119256466e-05,1.5333220338982985,82.25999094117414,-265.1,261.63,0.2380822959729814,0.002347288432595714,0.23230363274504745,0.24085057582219468,0.03215259604432456,0.009854707213623031,0.021406959976166127,0.048621603382035146,0.012914997172038582,0.025499858398425886,1.014311071800833e-07,0.07647585308499277,-1.1239924133932429,0.0068972387057228786,-1.1353367594043315,-1.113142665660307,0.36695943720548596,4.961433309921076,-6.658935546875,7.330322265625,29.866666666666667,0.01527525231651914,29.85,29.89,0.08135593220338982,0.0015892672858616795,0,1,0
0,0.04052962903776714,0.000201973656245392,0.03990710442037213,0.04059515794486131,0.04052960985035715,0.00020197356062765556,0.03990708552767574,0.04059513872642877,2.788652770175043e-05,1.3896855445339834e-07,2.745819785022804e-05,2.7931615054542318e-05,2.788652770175043e-05,1.3896855445339834e-07,2.745819785022804e-05,2.7931615054542318e-05,-0.7240476190476204,32.64091756680833,-86.45,121.22,0.23629390541227385,0.001535145257192784,0.23413755069660053,0.23938491906711348,0.009509551626667242,0.0056881987189595605,0.002643903942757252,0.02103386766084816,1.6199798678091866e-07,1.3547056971768007e-07,6.055618551742414e-08,6.859511925139117e-07,-1.106908812008194,0.00230207803328526,-1.1121027454250272,-1.1047586882214424,0.1558052476986434,2.8526424154800702,-3.80096435546875,5.55877685546875,29.86157894736842,0.009874559494364905,29.85,29.87,0.10884353741496598,0.0012631578947368152,0,1,0
0,0.04106322156696276,0.0006995946400479673,0.03990710442037213,0.042659318518328826,0.04106320212694098,0.0006995943088480664,0.03990708552767574,0.04265929832268786,2.8253667574484074e-05,4.813581020323264e-07,2.745819785022804e-05,2.935186666748515e-05,2.8253667574484074e-05,4.813581020323264e-07,2.745819785022804e-05,2.935186666748515e-05,0.06874576271186451,7.855214447748018,-21.83,17.96,0.23242340507761552,0.0010819181939490396,0.23028803500474923,0.23495041005591197,0.001015381204445661,0.0005922828915959448,0.00032948221117332804,0.002334036027376968,3.9588925190722145e-05,0.00015853272715741706,5.8052233277428034e-08,0.0006932087097376548,-1.1073260073551692,0.0017447747239204602,-1.110462714118515,-1.1049499551286235,-1.0955905233744765,3.0639255993602887,-4.64324951171875,5.04913330078125,29.86555555555556,0.008314794192830804,29.85,29.87,0.16271186440677965,-0.0004953560371516923,0,1,0
0,0.04098102579981131,0.0003854755703398974,0.04059515794486131,0.04197126499383966,0.040981006398702474,0.00038547538784926223,0.04059513872642877,0.04197124512393483,2.819711254074555e-05,2.6522757365024886e-07,2.7931615054542318e-05,2.8878449463170872e-05,2.819711254074555e-05,2.6522757365024886e-07,2.7931615054542318e-05,2.8878449463170872e-05,-0.1127118644067799,5.2491483184913195,-11.49,6.91,0.23041385547505683,0.0011235430777766535,0.2286858641304857,0.23275126491657777,0.0004939269339522054,0.0003366879899093859,0.00010917884690329976,0.0009675545970014003,0.0005247784461876249,0.0022250586147505086,1.2712073404336222e-07,0.009964902512703905,-1.113768267853225,0.0015486819772835738,-1.1159494910904386,-1.1108690614891994,0.37577134503915943,2.94992966572628,-3.509521484375,6.10504150390625,29.870000000000005,0.012977713690460727,29.85,29.89,0.16271186440677965,-0.0016842105263157536,0,1,0
0,0.04112406983783595,0.0002901239417480264,0.04059515794486131,0.041283211469350475,0.041124050369007584,0.0002901238043984596,0.04059513872642877,0.041283191925181796,2.829553440207644e-05,1.9962061165075856e-07,2.7931615054542318e-05,2.8405032258856593e-05,2.829553440207644e-05,1.9962061165075856e-07,2.7931615054542318e-05,2.8405032258856593e-05,-0.36589830508474563,4.32324836164172,-9.86,6.39,0.2290935301059443,0.0008054901754986625,0.22790303585957888,0.2311756126215104,0.00030228775194567883,0.00017822743150759556,8.902714031066424e-05,0.0006737303516429304,8.857438183089052e-07,2.6264558702397603e-06,5.600146251653719e-08,1.1616365814211271e-05,-1.1173292731023539,0.0007186645605765567,-1.1185256463870312,-1.1161170537233744,0.6165805382274375,2.3909408520119926,-2.85491943359375,5.46722412109375,29.860000000000007,0.009999999999999789,29.85,29.87,0.16271186440677965,-0.0016718266253869614,0,1,0
0,0.04114279238272001,0.00027730547699513256,0.04059515794486131,0.041283211469350475,0.041142772905028074,0.00027730534571404424,0.04059513872642877,0.041283191925181796,2.83084165028741e-05,1.9080083014986298e-07,2.7931615054542318e-05,2.8405032258856593e-05,2.83084165028741e-05,1.9080083014986298e-07,2.7931615054542318e-05,2.8405032258856593e-05,-0.07408163265306106,4.299736229072036,-10.2,7.4,0.22734527388853878,0.0013034540000087548,0.22444187167826612,0.22881087530053382,0.0005075323702255375,0.00029898834526672887,5.407276566097421e-05,0.0010666447568478776,0.002509566342947,0.006878029244453326,6.733595455353514e-08,0.028837392320453577,-1.1205764516577716,0.0013044068916571447,-1.1229093122357858,-1.1186869171884053,-1.6525306417687655,6.638065961232136,-10.46905517578125,8.65325927734375,29.85888888888889,0.009938079899998854,29.85,29.87,0.16326530612244897,0.0006604747162022562,0,1,0
0,0.04299869627027276,0.002374743403917908,0.03577878327343708,0.0488518002387314,0.04299867591396472,0.002374742279674325,0.03577876633515756,0.04885177711146513,2.9585376504748293e-05,1.6339490217439806e-06,2.461769462434238e-05,3.3612621506313634e-05,2.9585376504748293e-05,1.6339490217439806e-06,2.461769462434238e-05,3.3612621506313634e-05,-0.9596949152542408,70.21895576978093,-119.13,225.11,0.22669691006785353,0.0015386562118617389,0.2230736220566264,0.22825263893794423,0.0023012706480567387,0.0009201784835679078,0.0008656169237987274,0.0036156413558035318,3.367301358257892e-07,4.0794118787243653e-07,5.5815093994576737e-08,1.6350211106824775e-06,-1.1255393824375488,0.001233971301688451,-1.1270968843927196,-1.1232191990521105,2.1433756901667667,2.7089720773991752,-2.11181640625,6.500244140625,29.866842105263164,0.01488645855129542,29.85,29.89,0.10847457627118644,-0.0008421052631578768,0,1,0
0,0.036897455330259635,0.00854237012646698,0.007568588769380921,0.05091596081219893,0.03689743786238185,0.00854236608236487,0.00756858518628333,0.05091593670772422,2.5387400147003005e-05,5.877602307890536e-06,5.2075892474570424e-06,3.5032873119256466e-05,2.5387400147003005e-05,5.877602307890536e-06,5.2075892474570424e-06,3.5032873119256466e-05,1.8492542372881378,70.0661123786001,-176.83,221.88,0.2299529676265515,0.005499309960856906,0.22424756542475677,0.24176056005253077,0.011516120127459782,0.012649366723908366,0.0005979720768605338,0.03235834474302753,0.020374642211300645,0.055760792536952486,1.3655522701494505e-07,0.22442715716840975,-1.1254166190770671,0.0016652684109257727,-1.1271226349899248,-1.1218644289965192,-0.16314121569456833,2.381918354805821,-2.79693603515625,4.96368408203125,29.85888888888889,0.009938079899998854,29.85,29.87,0.24406779661016947,0.0016511867905056408,0,1,0
0,0.029330605986501328,0.010600382705015975,0.012384963440805145,0.05298012138566645,0.029330592100897758,0.010600377686615984,0.01238495757755454,0.05298009630398331,2.0181007716343046e-05,7.293623775266376e-06,8.521509677656977e-06,3.64531247321993e-05,2.0181007716343046e-05,7.293623775266376e-06,8.521509677656977e-06,3.64531247321993e-05,6.2983728813559345,104.2181012193144,-229.22,287.96,0.24696730728475788,0.00992068093417703,0.23173379551251727,0.26659111803151625,0.045506761978777406,0.019554374464901582,0.01763679521731483,0.07295390961583005,0.03674554856721386,0.13831996236578897,6.840213839787168e-08,0.6188192626428495,-1.113628831117251,0.004905167738226602,-1.1211918184587064,-1.1052429020159222,3.467421141215057,5.915152541696396,-3.33099365234375,19.873046875,29.833157894736832,0.007292845505554308,29.83,29.85,0.16271186440677965,0.0008421052631580263,0,1,0
0,0.03142579158789333,0.009481162169236383,0.01788939163671854,0.06949340597340663,0.0314257767103935,0.009481157680694286,0.01788938316757878,0.06949337307405602,2.1622606188884727e-05,6.523540870083563e-06,1.230884731217119e-05,4.781513763574193e-05,2.1622606188884727e-05,6.523540870083563e-06,1.230884731217119e-05,4.781513763574193e-05,-1.3712585034013636,74.7921832521759,-352.4,109.65,0.24172967654117938,0.0020307063849687727,0.23924916737089177,0.2454848151661513,0.016309974631894233,0.009198397921780269,0.005837463386092016,0.03646176708113093,0.011727926360575137,0.036422230900293055,6.294446996957248e-08,0.1506758150944581,-1.0965026449973259,0.004520137794556945,-1.1042637053322741,-1.0895939382750164,-7.240121713643038,9.389792434217659,-17.58270263671875,19.427490234375,29.83222222222221,0.0062853936105480715,29.83,29.85,0.13605442176870747,0.0,0,1,0
0,0.020318641835425227,0.005206336283148088,0.011008856391826794,0.03853099737139378,0.020318632216237465,0.005206333818380672,0.01100885118004848,0.03853097913016968,1.3980299890668557e-05,3.5822346375129013e-06,7.574675269028425e-06,2.651136344159949e-05,1.3980299890668557e-05,3.5822346375129013e-06,7.574675269028425e-06,2.651136344159949e-05,-11.57101694915254,121.7033840830686,-412.89,360.39,0.2537721840408627,0.008036616135437484,0.2411641584846397,0.2648786243160057,0.03559589467346907,0.01874398331164483,0.015550574736410338,0.0626498333845883,0.04163385469108744,0.1351864984948927,9.530816236225093e-08,0.5890667395808872,-1.0846564841615352,0.0023331137317268414,-1.088940942538136,-1.0812868674595837,3.1214312518785876,1.143634108458826,-1.37481689453125,4.77447509765625,29.842222222222226,0.009749960430437216,29.83,29.85,0.05423728813559322,-0.0002683178534572143,0,1,0
0,0.020576519590466764,0.000567484027924236,0.01926549868569689,0.021329659259164413,0.020576509849195332,0.0005674837592677261,0.01926548956508484,0.02132964916134393,1.4157733420912088e-05,3.904590158045536e-07,1.3255681720799745e-05,1.4675933333742575e-05,1.4157733420912088e-05,3.904590158045536e-07,1.3255681720799745e-05,1.4675933333742575e-05,5.907457627118646,15.43882552321711,-27.87,37.32,0.2612319192620387,0.0007375386763320817,0.25969232617992194,0.2624569731043318,0.05031866604436733,0.0027328057691517974,0.0452709712120216,0.05548335277980799,0.03351449063341532,0.04614545476134501,4.4384043791367844e-06,0.14486420987863113,-1.078988443451734,0.0011072231508468457,-1.080997117681755,-1.0773093510283462,1.202415769212595,0.7696311407944154,-0.213623046875,2.7435302734375,29.844736842105274,0.00880694764772849,29.83,29.85,0.16271186440677965,0.0006666666666667708,0,1,0
0,0.026160075839251663,0.007302638570775006,0.017201338112229368,0.05504428195913397,0.026160063454630518,0.007302635113582722,0.01720132996882575,0.055044255900242395,1.7999515339540764e-05,5.024601449226789e-06,1.1835430107856916e-05,3.7873376345142124e-05,1.7999515339540764e-05,5.024601449226789e-06,1.1835430107856916e-05,3.7873376345142124e-05,-0.8986734693877538,73.12612314580579,-410.39,130.86,0.25660156250756017,0.006141164674743189,0.2439488051749879,0.2614807288433299,0.035012583606295826,0.010507371674868274,0.015843919448599735,0.047304875320916234,0.010503038972285753,0.04284601428227474,1.7896020998442452e-08,0.18715277138532238,-1.0754366827190756,0.0011633993110581734,-1.0771423866294592,-1.0732811855563305,-0.6823030949822135,2.750236788449943,-4.534912109375,4.79736328125,29.85444444444445,0.008314794192830804,29.85,29.87,0.10884353741496598,0.0004953560371516923,0,1,0
0,0.019237414868370765,0.002814553391047654,0.010320802867337619,0.023393819832631935,0.019237405761054076,0.002814552058590605,0.010320797981295449,0.02339380875760302,1.3236358569603244e-05,1.9365615469701927e-06,7.101258064714148e-06,1.6096184946685404e-05,1.3236358569603244e-05,1.9365615469701927e-06,7.101258064714148e-06,1.6096184946685404e-05,-1.05230508474577,107.27298155154341,-316.66,202.78,0.2675335801830584,0.00867332835213946,0.2445024257784844,0.274168262609579,0.05840543378506989,0.018777502446036015,0.014045272954073759,0.07821932860576888,0.06502970250897926,0.13489309917211492,2.9117319250149265e-07,0.5872667849228261,-1.068386985141439,0.003213520992576087,-1.0729356267778294,-1.0623678998023145,0.8977038097144948,2.875908328942234,-3.497314453125,5.77239990234375,29.869999999999997,3.552713678800501e-15,29.87,29.87,0.05423728813559322,0.0,0,1,0
0,0.02204560684545719,0.0005113911330662793,0.021329659259164413,0.023393819832631935,0.022045596408695058,0.0005113908909650888,0.02132964916134393,0.02339380875760302,1.5168543127420941e-05,3.518641383416917e-07,1.4675933333742575e-05,1.6096184946685404e-05,1.5168543127420941e-05,3.518641383416917e-07,1.4675933333742575e-05,1.6096184946685404e-05,3.702033898305086,16.036959682659848,-39.67,35.23,0.270217124602161,0.00040668030273347997,0.2695423889888368,0.271034830444018,0.048009702780360514,0.006683344615590363,0.0365540188017043,0.059547544755879915,0.024298785877659188,0.03925482888446156,6.772871423255111e-06,0.14691496231792112,-1.051989478047028,0.006209805784248106,-1.0614745286639717,-1.0413037822180975,-0.2671703654640475,4.133884939757614,-5.47637939453125,7.39898681640625,29.878888888888884,0.009938079899998852,29.87,29.89,0.16271186440677965,0.0,0,1,0
0,0.02316446865780224,0.0003618952179586191,0.022705766308142764,0.024081873357121114,0.023164457691352044,0.00036189504663132065,0.022705755558849988,0.02408186195635605,1.593837921191393e-05,2.490030444475573e-07,1.5622767742371126e-05,1.656960215099968e-05,1.593837921191393e-05,2.490030444475573e-07,1.5622767742371126e-05,1.656960215099968e-05,-0.6685762711864414,12.46147174185282,-27.79,15.12,0.26927349301428194,0.0012754078153885396,0.26607356968510143,0.2709393634431417,0.021743964232662203,0.008649166901141684,0.010080959043438593,0.03459306895567444,0.007620647859846582,0.015661709469789818,1.711154275496618e-07,0.05591266853248045,-1.027942871074159,0.007130495534769101,-1.0399423152616802,-1.0167013750163132,-0.9455091604228055,2.4625184647521046,-5.39093017578125,4.02984619140625,29.88263157894736,0.02073443747746504,29.85,29.91,0.16271186440677965,0.003157894736842038,0,1,0
0,0.023389139196410964,9.818185367332032e-05,0.022705766308142764,0.024081873357121114,0.023389128123597953,9.81818071923749e-05,0.022705755558849988,0.02408186195635605,1.609296442148593e-05,6.755430649806678e-08,1.5622767742371126e-05,1.656960215099968e-05,1.609296442148593e-05,6.755430649806678e-08,1.5622767742371126e-05,1.656960215099968e-05,-1.3481632653061228,10.319426071712268,-23.79,14.88,0.27015299300395507,0.0008774429973736999,0.268787038843117,0.27163451413670864,0.004754220658411168,0.002586998853731014,0.0014797345313793129,0.009647086279272722,7.351456506294534e-08,2.8789526617733346e-08,4.286026590583081e-08,1.4396769895674844e-07,-1.008768720418125,0.003599772542525842,-1.0156222808925204,-1.0039371372427643,0.8510764715985092,1.6135415395307546,-1.287841796875,3.961181640625,29.89666666666666,0.00942809041582043,29.89,29.91,0.13605442176870747,-0.0004953560371516923,0,1,0
0,0.02343101191503679,0.0001555856432583731,0.023393819832631935,0.024081873357121114,0.023431000822400537,0.000155585569601504,0.02339380875760302,0.02408186195635605,1.612177506583747e-05,1.0705114884412672e-07,1.6096184946685404e-05,1.656960215099968e-05,1.612177506583747e-05,1.0705114884412672e-07,1.6096184946685404e-05,1.656960215099968e-05,-0.1794237288135594,8.635642655569482,-18.52,12.14,0.27007490113783894,0.0014813848304614848,0.26735444555841065,0.2725263394347188,0.0006632378108969113,0.00040393328914491036,0.00020172432332178386,0.0016998419415128227,0.0020645985473997986,0.00849063226578655,7.823352811409112e-08,0.03707227813954129,-1.0029513713963054,0.0003791123521261443,-1.0036952516366602,-1.0025250534384325,0.5487676958397165,3.2894884186084608,-6.87713623046875,5.92498779296875,29.90111111111112,0.009938079899998852,29.89,29.91,0.16271186440677965,-0.0003302373581011281,0,1,0
0,0.020342045016530273,0.003953843988626767,0.009632749342848445,0.027522140979566984,0.02034203538626305,0.003953842116810329,0.00963274478254242,0.027522127950121197,1.3996402516665618e-05,2.7204537158357987e-06,6.627840860399872e-06,1.8936688172571062e-05,1.3996402516665618e-05,2.7204537158357987e-06,6.627840860399872e-06,1.8936688172571062e-05,7.223254237288142,152.042093117595,-585.27,333.58,0.2707945558957992,0.0017708601268238756,0.2675232477263416,0.2744546134091027,0.0055524720863782285,0.0018756940160430144,0.002738875701521682,0.008199279712282664,0.010026379102722194,0.023592126386705638,9.480160148567229e-08,0.0793912705086797,-1.0075726192315668,0.0024858040956258266,-1.012018737217143,-1.0039597057168537,-1.1408065152227436,2.919578656182202,-6.72454833984375,3.76129150390625,29.889999999999997,0.012977713690460729,29.87,29.91,0.05423728813559322,-0.0016842105263157536,0,1,0
0,0.024755979850708428,0.0007732884855452881,0.021329659259164413,0.025457980406099465,0.02475596813081002,0.0007732881194574753,0.02132964916134393,0.02545796835386211,1.7033423060631894e-05,5.320633641504326e-07,1.4675933333742575e-05,1.7516436559628233e-05,1.7033423060631894e-05,5.320633641504326e-07,1.4675933333742575e-05,1.7516436559628233e-05,-6.2461694915254204,99.43988033610769,-456.82,316.55,0.2706848713109793,0.0010902684547436313,0.26888135285231707,0.27244991475478814,0.014585514087356125,0.0015049298261997494,0.010168706828091435,0.016401522658795707,0.009525495733351355,0.02152544115734841,4.206599146794332e-07,0.06807618632300799,-1.0174999043687842,0.002967119203722548,-1.022233646008712,-1.0125891528832178,1.2924123320785177,3.627229992586589,-4.47845458984375,6.80999755859375,29.903333333333332,0.016329931618554172,29.89,29.93,0.16271186440677965,0.0003302373581011281,0,1,0
0,0.026660903914900242,0.005683387242685552,0.016513284587740193,0.04816374671424223,0.02666089129317864,0.005683384552074165,0.01651327677007272,0.0481637239127121,1.8344111535878385e-05,3.910470920798185e-06,1.1362012903542639e-05,3.313920430199936e-05,1.8344111535878385e-05,3.910470920798185e-06,1.1362012903542639e-05,3.313920430199936e-05,14.339625850340141,62.67122032753954,-250.95,298.89,0.2660436947115001,0.004413356241119793,0.25201035642474967,0.2689186329493889,0.011587693863004024,0.00395203719410496,0.004715118302577812,0.016541740027926362,0.004286919017141925,0.01817905100407567,2.308217053603734e-08,0.0814140986286867,-1.0260810212303881,0.0017185759279944566,-1.0282286373292806,-1.022733778353724,-0.9811609549115795,3.221624525045602,-5.29937744140625,4.7271728515625,29.911052631578944,0.0177392626803709,29.89,29.93,0.05442176870748299,0.0013333333333333049,0,1,0
0,0.018043852632012032,0.00372374544479967,0.009632749342848445,0.025457980406099465,0.018043844089747824,0.003723743681915765,0.00963274478254242,0.02545796835386211,1.2415124643751953e-05,2.5621337516785244e-06,6.627840860399872e-06,1.7516436559628233e-05,1.2415124643751953e-05,2.5621337516785244e-06,6.627840860399872e-06,1.7516436559628233e-05,-0.9562711864406948,119.86297229383602,-435.3,215.99,0.2629358839920048,0.0019996163341772398,0.25531965565812464,0.26531269476081215,0.005259758799785243,0.0006523612192800579,0.004173695111334969,0.006297948295285782,0.005544201341389389,0.013005506673761909,5.140568949957292e-07,0.04412024628720963,-1.0280758443931262,0.0003513423590293802,-1.0284163017150152,-1.027321777143441,-0.08810471201253685,4.0075291028835345,-5.0872802734375,7.82623291015625,29.89888888888889,0.009938079899998854,29.89,29.91,0.18983050847457628,-0.0003302373581011281,0,1,0
0,0.021562109774194493,0.0013349380306595644,0.01788939163671854,0.022705766308142764,0.021562099566328097,0.0013349373986773856,0.01788938316757878,0.022705755558849988,1.483587157844333e-05,9.185079472950243e-07,1.230884731217119e-05,1.5622767742371126e-05,1.483587157844333e-05,9.185079472950243e-07,1.230884731217119e-05,1.5622767742371126e-05,-31.85223728813558,210.26969862635528,-549.9,486.88,0.26337660901141347,0.000984158537051084,0.2611878563822466,0.2648921282910658,0.003325346136243849,0.0017476587210569349,0.0010119573567333574,0.006203308388526156,1.734188129991429e-07,1.17064858267601e-07,8.889958860031077e-08,5.782408193655275e-07,-1.0261892592773316,0.0005215143088010747,-1.0271901271848223,-1.0255972732961225,1.151322490228317,4.228182625506325,-5.05218505859375,7.87506103515625,29.889999999999993,0.012977713690460727,29.87,29.91,0.10847457627118644,-0.0016842105263157536,0,1,0
0,0.022153451234062982,0.00027380721738725933,0.022017712783653588,0.022705766308142764,0.02215344074624554,0.00027380708776230295,0.02201770236009696,0.022705755558849988,1.5242745768839906e-05,1.8839384257610387e-07,1.514935053805685e-05,1.5622767742371126e-05,1.5242745768839906e-05,1.8839384257610387e-07,1.514935053805685e-05,1.5622767742371126e-05,23.682677966101704,52.236638852353515,-103.77,231.02,0.2622381486268395,0.0008891394881927245,0.2605708994381015,0.26379706021650445,0.0014653365243789394,0.0006261010448069638,0.000577336100567675,0.002594201127382143,0.0024209026645741873,0.005110736049282012,1.8574535862875274e-07,0.016810021430575663,-1.0263090061838447,0.0005655174787708348,-1.0274009107282198,-1.0256115091805245,-0.8666452472342344,0.6621039264568354,-2.53143310546875,0.18157958984375,29.889999999999993,7.105427357601002e-15,29.89,29.89,0.16271186440677965,0.0,0,1,0
0,0.02253258276796524,0.00029860845033964764,0.022017712783653588,0.022705766308142764,0.022532572100660415,0.0002986083089733704,0.02201770236009696,0.022705755558849988,1.5503608309992693e-05,2.054584021633599e-07,1.514935053805685e-05,1.5622767742371126e-05,1.5503608309992693e-05,2.054584021633599e-07,1.514935053805685e-05,1.5622767742371126e-05,-12.624421768707498,139.70867353675774,-407.6,259.67,0.2616524602647994,0.001279510813523274,0.2594391460433181,0.26416155297251187,0.001833246637322556,0.000816225883834268,0.0006488406582801456,0.0029864820030565953,2.0159427700185757e-07,3.4692166084719677e-07,7.319255149879078e-08,1.5882937722255797e-06,-1.0291484118320526,0.000976750612267863,-1.030739906042429,-1.0275711945181332,0.5581465311736682,7.3286734336454655,-9.13543701171875,14.64385986328125,29.885555555555566,0.015713484026367387,29.87,29.91,0.10884353741496598,0.0009907120743033846,0,1,0
0,0.023714601543373532,0.002157235961857782,0.01926549868569689,0.026834087455077812,0.023714590316481134,0.0021572349405858905,0.01926548956508484,0.02683407475136817,1.631689972437245e-05,1.4842924013319255e-06,1.3255681720799745e-05,1.8463270968256787e-05,1.631689972437245e-05,1.4842924013319255e-06,1.3255681720799745e-05,1.8463270968256787e-05,5.971593220338997,188.39109798277775,-440.77,394.06,0.259869384042557,0.0013098457386873455,0.25699940639285834,0.26174740254375084,0.0004597495467438639,0.00012374669850607375,0.00024030358288942925,0.0006320454933711186,0.0002906273002397286,0.0012320951583251517,8.800567904282408e-08,0.0055179642596003015,-1.0322170422760537,0.0007155973384167182,-1.033244229851387,-1.0309158586000526,-4.041559583791728,11.991757622448352,-15.76080322265625,15.80352783203125,29.881578947368414,0.016307298299820357,29.85,29.89,0.10847457627118644,0.00014035087719297944,0,1,0
0,0.02501800060132407,0.002821488135213612,0.017201338112229368,0.029586301553034506,0.02501798875738058,0.002821486799473535,0.01720132996882575,0.029586287546380288,1.7213707190883056e-05,1.9413330176172136e-06,1.1835430107856916e-05,2.035693978551389e-05,1.7213707190883056e-05,1.9413330176172136e-06,1.1835430107856916e-05,2.035693978551389e-05,8.439423728813544,76.98151107988521,-214.52,269.49,0.26027214245747127,0.0019157045272449687,0.2571916253599176,0.2641224618218088,0.0029010877302527785,0.0024874201692903454,0.0002682166005547568,0.008263138602826847,0.0057733739746841355,0.018099927956770415,1.1549805686850156e-07,0.07539737949962316,-1.0335511603601475,0.00010167510290038734,-1.0336613063533022,-1.0333181054303309,3.1191933277117108,3.644027790973623,-8.9752197265625,5.73883056640625,29.883333333333326,0.009428090415820432,29.87,29.89,0.18983050847457628,-0.0008255933952528204,0,1,0
0,0.024277131789746397,0.0006499974810411346,0.023393819832631935,0.026146033930588636,0.024277120296542665,0.0006499971733213623,0.02339380875760302,0.02614602155261514,1.670395027654837e-05,4.472326342841907e-07,1.6096184946685404e-05,1.7989853763942512e-05,1.670395027654837e-05,4.472326342841907e-07,1.6096184946685404e-05,1.7989853763942512e-05,-10.328203389830522,62.38854664955243,-123.68,113.19,0.26150771924212085,0.0011217017996786702,0.258808236108776,0.26300734467457215,0.005120996608538463,0.0014558143983874625,0.0028653642575491188,0.008155310491224232,0.001357699336976364,0.005758778354482727,1.0452692322804324e-07,0.02579012661715442,-1.032211054900573,0.000817910629428929,-1.03335355833873,-1.0307197417899039,2.0802097935830393,1.0183326377222974,0.3143310546875,4.25872802734375,29.887894736842107,0.014355980733669014,29.87,29.91,0.05423728813559322,0.002280701754385916,0,1,0
0,0.024311224531950806,0.00032435154199040006,0.024081873357121114,0.02476992688161029,0.02431121302260703,0.00032435138843690803,0.02408186195635605,0.02476991515510908,1.6727407885771116e-05,2.2317101033400096e-07,1.656960215099968e-05,1.7043019355313955e-05,1.6727407885771116e-05,2.2317101033400096e-07,1.656960215099968e-05,1.7043019355313955e-05,4.610408163265306,12.737242350310582,-25.7,23.04,0.2611245551284706,0.0012817522073035954,0.25867888955641577,0.26276892676152014,0.0011139298001770555,0.00067699852744399,0.0003203999064706218,0.0025626052372103745,9.46600294953821e-08,4.7523065391233784e-08,4.975518516289745e-08,2.1201984638525434e-07,-1.0288382344468578,0.0010126727098417783,-1.0305231606741498,-1.0272380124809601,-0.41614560867953243,0.3633626765824223,-1.1962890625,0.69427490234375,29.89444444444444,0.0083147941928308,29.89,29.91,0.16326530612244897,-0.0006604747162022562,0,1,0
0,0.019064231328193248,0.0064206012102967945,0.006880535244891746,0.032338515650991204,0.01906422230286456,0.006420598170675876,0.006880531987530299,0.03233850034139241,1.3117199137224817e-05,4.417713109241388e-06,4.7341720431427655e-06,2.2250608602771e-05,1.3117199137224817e-05,4.417713109241388e-06,4.7341720431427655e-06,2.2250608602771e-05,-16.1766779661017,171.7107329196738,-617.59,365.03,0.2629188863170404,0.001645312900692335,0.2603480685161192,0.26555712925963915,0.0024878970394608423,0.0030520938862398407,0.0002202783802902781,0.008902397336039782,0.009028654005846138,0.023359088553403323,2.481339110727704e-07,0.07908319957496793,-1.0261127317973424,0.00047992453691836844,-1.0270750639395831,-1.0255446918516886,-1.0398843441548054,2.1367447739407055,-4.19158935546875,3.34320068359375,29.881111111111107,0.009938079899998854,29.87,29.89,0.10847457627118644,0.0013209494324045125,0,1,0
0,0.018005616894233602,0.0023665015093767058,0.010320802867337619,0.020641605734675238,0.018005608370070845,0.002366500389034974,0.010320797981295449,0.020641595962590898,1.2388816434521594e-05,1.6282781625258047e-06,7.101258064714148e-06,1.4202516129428297e-05,1.2388816434521594e-05,1.6282781625258047e-06,7.101258064714148e-06,1.4202516129428297e-05,13.079932203389827,173.796665379243,-469.33,444.56,0.2652994495873434,0.0021430678851681777,0.2629709046161253,0.2706031606984093,0.008748271606242322,0.0032310402115901513,0.004053693400467029,0.013136106006704604,0.0035802873678392935,0.011213402657293658,9.221267899262031e-08,0.049204645611318085,-1.0259089423618222,0.0003654438502885243,-1.0266791046745876,-1.0255291954825791,1.1204854430395084,4.771416011002483,-5.38177490234375,11.46697998046875,29.88157894736842,0.009874559494364905,29.87,29.89,0.10847457627118644,-0.0004210526315789384,0,1,0
0,0.02008929066059548,0.0032189031701354374,0.013073016965294318,0.044035425567307176,0.02008928114998643,0.003218901646252381,0.01307301077630757,0.04403540472019392,1.3822494155897112e-05,2.2147755741753444e-06,8.994926881971256e-06,3.02987010761137e-05,1.3822494155897112e-05,2.2147755741753444e-06,8.994926881971256e-06,3.02987010761137e-05,0.8470408163265288,177.89667103803072,-714.14,357.32,0.26302183637244153,0.002502362038112395,0.25578724736825204,0.26471165850126005,0.004980870667276678,0.0018360117835410513,0.0019911478034753266,0.00716947855124731,0.0005826872476847257,0.0017119099356923209,3.203149771813241e-08,0.006653266009113673,-1.028319876325197,0.001009568126056233,-1.0301000053904887,-1.0268139568010914,-2.203656426138677,6.708083669722696,-9.02557373046875,12.47406005859375,29.889999999999993,7.105427357601002e-15,29.89,29.89,0.13605442176870747,0.0,0,1,0
0,0.022598111675059457,0.000499272739213833,0.020641605734675238,0.024081873357121114,0.02259810097673212,0.0004992725028496991,0.020641595962590898,0.02408186195635605,1.5548695662784537e-05,3.4352604263516554e-07,1.4202516129428297e-05,1.656960215099968e-05,1.5548695662784537e-05,3.4352604263516554e-07,1.4202516129428297e-05,1.656960215099968e-05,1.2478644067796556,96.6289920201441,-344.71,221.27,0.25998375574716553,0.001801875916768981,0.25590103835486716,0.2626420949101627,0.0016326099496276282,0.0007283620131384247,0.001047096118226056,0.0038017029747976754,0.002482163627012377,0.008413516723819707,1.1440966318082557e-07,0.03681131826339941,-1.032606865403895,0.001388822329206413,-1.0348756713238845,-1.0303403712736223,1.5879321039166698,2.838771070549693,-2.3773193359375,6.39801025390625,29.889999999999993,7.105427357601002e-15,29.89,29.89,0.08135593220338982,0.0,0,1,0
0,0.02161789789780176,0.0017723646784153263,0.016513284587740193,0.023393819832631935,0.02161788766352425,0.0017723638393479894,0.01651327677007272,0.02339380875760302,1.4874256757171515e-05,1.219480609017586e-06,1.1362012903542639e-05,1.6096184946685404e-05,1.4874256757171515e-05,1.219480609017586e-06,1.1362012903542639e-05,1.6096184946685404e-05,4.341491525423731,80.99143267401135,-471.75,221.62,0.26027111401131775,0.0006959338798111644,0.25909251275722095,0.2616702088027009,0.00572711172528621,0.001562786348863159,0.0035050379854731487,0.008013523922610837,0.00399321297816988,0.011425190424237213,1.2798005115388644e-07,0.0450187989658537,-1.0369050213529964,0.0010128824735609995,-1.0384075468982794,-1.035116898462011,0.07024724180935851,2.1015333508485665,-2.66571044921875,4.62493896484375,29.886666666666663,0.01527525231651914,29.87,29.91,0.18983050847457628,-0.0022497420020639357,0,1,0
0,0.019391875863664317,0.0005619103295965043,0.01788939163671854,0.019953552210186066,0.019391866683223156,0.0005619100635786755,0.01788938316757878,0.01995354276383787,1.3342635901184012e-05,3.866240166568254e-07,1.230884731217119e-05,1.372909892511402e-05,1.3342635901184012e-05,3.866240166568254e-07,1.230884731217119e-05,1.372909892511402e-05,-5.363220338983047,146.92813975662145,-839.76,329.08,0.25755382077180977,0.0011701410723296778,0.25542377366275837,0.2592888506203673,0.001703074926772236,0.0010897617043918097,0.0004500171546569817,0.004079590156709036,2.550452836502683e-07,2.723903848593865e-07,6.294206090357024e-08,1.0842227233590074e-06,-1.0393558846834063,0.0004140744836396673,-1.0398905731655295,-1.0385396647483403,0.28658883447386785,2.504154995626342,-3.35845947265625,5.20172119140625,29.884736842105273,0.015683857290264235,29.87,29.91,0.21694915254237288,0.0001052631578947346,0,1,0
0,0.019944190937744074,7.970836264601062e-05,0.01926549868569689,0.019953552210186066,0.019944181495827624,7.970832491072707e-05,0.01926548956508484,0.01995354276383787,1.372265787471521e-05,5.4843567922071684e-08,1.3255681720799745e-05,1.372909892511402e-05,1.372265787471521e-05,5.4843567922071684e-08,1.3255681720799745e-05,1.372909892511402e-05,0.866598639455783,7.8900394450441045,-17.3,12.98,0.2574182612369011,0.0008165610181074268,0.25628225088230316,0.2590443091523069,0.0011991476655108758,0.0004535053221169506,0.0003972741688905338,0.0018278026534771729,0.000984269638295748,0.004054062305162772,1.461146026601745e-07,0.017699595696578183,-1.0399621514503665,3.71209894955314e-05,-1.0400029518706078,-1.039877948530122,0.16044588301968635,3.647926610756217,-4.89654541015625,6.04400634765625,29.885555555555552,0.008314794192830802,29.87,29.89,0.16326530612244897,0.00016511867905056406,0,1,0
0,0.019962850230787307,7.94423228407353e-05,0.019953552210186066,0.020641605734675238,0.019962840780037232,7.944228523139985e-05,0.01995354276383787,0.020641595962590898,1.3735496454902072e-05,5.4660518469715385e-08,1.372909892511402e-05,1.4202516129428297e-05,1.3735496454902072e-05,5.4660518469715385e-08,1.372909892511402e-05,1.4202516129428297e-05,-0.545016949152542,7.000743295867086,-14.5,11.15,0.25736625735157237,0.0006023862103613396,0.2562183443342294,0.2585171517343621,0.00023987606721743372,0.00014814983580889042,6.819728827200013e-05,0.0005616962426290253,1.2839727760155304e-07,6.139772702754472e-08,7.011892429924574e-08,2.78007788236459e-07,-1.039247372022739,0.0005137479812843665,-1.039851778117032,-1.0381690030191177,-0.271331379955835,2.9564252987901227,-4.82177734375,5.80596923828125,29.869999999999997,0.013333333333333051,29.85,29.89,0.18983050847457628,-0.0006604747162022562,0,1,0
0,0.019293582503022964,0.004030329488485119,0.010320802867337619,0.028898248028545334,0.019293573369115583,0.004030327580459154,0.010320797981295449,0.02889823434762726,1.3275004871996248e-05,2.773079783757481e-06,7.101258064714148e-06,1.9883522581199616e-05,1.3275004871996248e-05,2.773079783757481e-06,7.101258064714148e-06,1.9883522581199616e-05,-6.109491525423728,73.42799218752073,-176.33,256.2,0.2606340149423289,0.0037649780015607537,0.2556166391870866,0.2668925387674847,0.005835000073288637,0.006802450228372555,2.2193436653250195e-05,0.015737586376210123,0.009029723119997508,0.03718528365014914,6.908749905758932e-08,0.16672734810262188,-1.034782106058715,0.0023117179374798924,-1.0379546414508534,-1.0303719082086829,0.10811211749282723,1.9138360434137363,-2.83203125,4.046630859375,29.870000000000005,0.012977713690460727,29.85,29.89,0.16271186440677965,-0.0016842105263157536,0,1,0
0,0.015736899867539594,0.0008587843302349127,0.012384963440805145,0.01788939163671854,0.015736892417425707,0.0008587839236719242,0.01238495757755454,0.01788938316757878,1.0827819166242068e-05,5.908890257201451e-07,8.521509677656977e-06,1.230884731217119e-05,1.0827819166242068e-05,5.908890257201451e-07,8.521509677656977e-06,1.230884731217119e-05,5.553830508474575,62.92247618613719,-155.74,224.25,0.26792836448828855,0.000921609165666563,0.2653517211908417,0.2689465037279531,0.012750881969376453,0.004164328369502254,0.0061836108689262755,0.018319731411949234,0.007692052499518824,0.023433190335068316,3.5767826708776873e-07,0.1023324108450985,-1.02270808518802,0.004500124837829324,-1.0296964567051248,-1.0151066281192653,0.03883392589638923,2.378496863850918,-4.28009033203125,4.72564697265625,29.878888888888884,0.009938079899998852,29.87,29.89,0.16271186440677965,0.0,0,1,0
0,0.01591884378767134,0.0005178823101985711,0.014449124014272667,0.017201338112229368,0.015918836251422135,0.0005178820650243507,0.01444911717381363,0.01720132996882575,1.0953006203216692e-05,3.5633041141682885e-07,9.941761290599808e-06,1.1835430107856916e-05,1.0953006203216692e-05,3.5633041141682885e-07,9.941761290599808e-06,1.1835430107856916e-05,1.6706122448979588,17.53842334711724,-36.6,29.52,0.27017094900222977,0.0007448074342934181,0.2690462213491419,0.27166154799303915,0.0029802044558209563,0.0016665548910037003,0.0008693635653884241,0.0060544138495630785,1.1396393446172347e-07,7.336206474340408e-08,6.278450294383564e-08,3.706059999025735e-07,-1.0068738400662953,0.004114163325961956,-1.0141877455878463,-1.0008915608610587,0.07339927022771318,1.972564154821552,-3.03192138671875,4.144287109375,29.89105263157894,0.00787717344583971,29.87,29.91,0.16326530612244897,0.0009122807017543664,0,1,0
0,0.01863829343208093,0.0009493502650878234,0.016513284587740193,0.020641605734675238,0.0186382846083984,0.0009493498156493941,0.01651327677007272,0.020641595962590898,1.2824131344077915e-05,6.532031773931656e-07,1.1362012903542639e-05,1.4202516129428297e-05,1.2824131344077915e-05,6.532031773931656e-07,1.1362012903542639e-05,1.4202516129428297e-05,-0.6469830508474567,13.255110663235827,-35.15,30.59,0.27152499317774975,0.0005653523167469513,0.2706284162358485,0.2726000699913771,0.00032518237037929107,0.00020229538423565416,9.224924155851739e-05,0.0007677253879596971,4.4259856844354107e-07,3.224655945461741e-07,8.790804926703255e-08,1.0817051154907338e-06,-0.9994263649648665,0.00048307089493238525,-1.0004687744082665,-0.9988849113799846,5.640651171450803,4.204665046521567,-1.171875,12.91046142578125,29.896666666666665,0.009428090415820434,29.89,29.91,0.18983050847457628,-0.0008255933952528204,0,1,0
0,0.019177167489985446,0.0007472479656612826,0.017201338112229368,0.020641605734675238,0.019177158411190866,0.0007472476119014923,0.01720132996882575,0.020641595962590898,1.3194905187813474e-05,5.141461096293838e-07,1.1835430107856916e-05,1.4202516129428297e-05,1.3194905187813474e-05,5.141461096293838e-07,1.1835430107856916e-05,1.4202516129428297e-05,0.2002033898305099,30.423590489350808,-38.57,105.02,0.2708738141035712,0.0011070829292266393,0.2689575518693258,0.2729054732796067,0.0012323595259554447,0.0005097562215191404,8.152813617584795e-05,0.0021457064475713145,0.0018920179733087638,0.004316752076492407,1.4492466906407264e-07,0.014072769948013281,-1.0032828615320255,0.0016870722319245418,-1.0057972832147575,-1.0004655245975809,-10.643023829306326,6.778470998456861,-17.2821044921875,3.40118408203125,29.893157894736845,0.01488645855129542,29.87,29.91,0.05423728813559322,0.0014035087719297945,0,1,0
0,0.020791386093747675,0.0003808323948531803,0.019953552210186066,0.021329659259164413,0.020791376250754823,0.00038083221456070156,0.01995354276383787,0.02132964916134393,1.4305572935809658e-05,2.62032823416691e-07,1.372909892511402e-05,1.4675933333742575e-05,1.4305572935809658e-05,2.62032823416691e-07,1.372909892511402e-05,1.4675933333742575e-05,-0.7595932203389828,11.150021775639821,-26.98,21.76,0.26999972609236894,0.0009407625384370329,0.2686705242287475,0.27221744605364145,0.0011738222206688419,0.0005937085831416062,0.00038343173441794984,0.0021756395792268905,1.563776278774622e-07,4.98171828693202e-08,7.259050677568823e-08,2.5762192062961375e-07,-1.0053694371012722,0.0009527751552091671,-1.0062670793850477,-1.003288321206687,5.172319498041421,1.3205673874759998,1.79595947265625,6.93359375,29.892222222222227,0.014740554623801461,29.87,29.91,0.18983050847457628,0.0013209494324045125,0,1,0
0,0.021329659259164337,7.632783294297951e-17,0.021329659259164413,0.021329659259164413,0.02132964916134394,1.0408340855860843e-17,0.02132964916134393,0.02132964916134393,1.467593333374258e-05,5.082197683525802e-21,1.4675933333742575e-05,1.4675933333742575e-05,1.467593333374258e-05,5.082197683525802e-21,1.4675933333742575e-05,1.4675933333742575e-05,-0.39064625850340123,11.10577394369579,-25.69,21.3,0.27092083217481594,0.0007736969065348978,0.2694469519462458,0.27212655010246734,0.0001435999707024015,8.930466898271734e-05,4.0633091195676846e-05,0.00033876342740054026,9.522014560160193e-08,6.558065623842496e-08,5.8821146434531735e-08,3.404221500763298e-07,-1.0004965163709527,0.0011991835069897364,-1.0029195257760577,-0.9992696360460923,0.6566102096519755,0.8303116886366888,-0.67596435546875,2.28118896484375,29.915555555555564,0.014614384931072916,29.89,29.93,0.16326530612244897,-0.0015892672858616795,0,1,0
0,0.021487725609384816,0.00028943589670308786,0.021329659259164413,0.022017712783653588,0.021487715436733185,0.0002894357596792514,0.02132964916134393,0.02201770236009696,1.478469134013909e-05,1.9914720028082172e-07,1.4675933333742575e-05,1.514935053805685e-05,1.478469134013909e-05,1.9914720028082172e-07,1.4675933333742575e-05,1.514935053805685e-05,0.39111864406779673,10.558019577207805,-23.33,16.37,0.2712871700272385,0.0007258738978698605,0.26998071225405146,0.27249231464306267,0.005193108221213511,0.004627469272823643,2.8207418621191977e-05,0.013125495722810819,0.009789135089164201,0.017201499716212414,6.168725397714958e-07,0.06967938539666782,-1.0058380636185165,0.005275446452393947,-1.0164752741911962,-0.9995946939109969,-1.0226607026888181,3.931971231738235,-7.00836181640625,4.66156005859375,29.927894736842106,0.01575434689167942,29.89,29.95,0.16271186440677965,0.0011929824561403254,0,1,0
0,0.021465397709573786,0.00046548215351082365,0.01788939163671854,0.022705766308142764,0.021465387547492512,0.0004654819331437201,0.01788938316757878,0.022705755558849988,1.4769328564525661e-05,3.202763330612805e-07,1.230884731217119e-05,1.5622767742371126e-05,1.4769328564525661e-05,3.202763330612805e-07,1.230884731217119e-05,1.5622767742371126e-05,0.5176271186440674,11.01867378573995,-25.11,15.03,0.2732428465678954,0.0010458956761735928,0.27014747837042663,0.27502727848814923,0.03819312367138529,0.011391257793578824,0.015220455860456861,0.055977897720889264,0.05028380193530194,0.06751663593999303,1.234027921404035e-06,0.19053284246149554,-1.0335472701261548,0.009432627506579416,-1.04863497481093,-1.0181524173287142,-0.6584387627440952,3.984474276738534,-5.9783935546875,6.12030029296875,29.90777777777778,0.011331154474650393,29.89,29.93,0.16271186440677965,-0.0011558307533539487,0,1,0
0,0.020255737879725205,0.006813836343880339,0.0027522140979566985,0.05229206786117727,0.020218536225519782,0.006923412686656393,-0.00275221279501212,0.05229204310523028,1.3911428524072897e-05,4.763676245341241e-06,-1.8936688172571063e-06,3.5979707527885024e-05,1.3911428524072897e-05,4.763676245341241e-06,-1.8936688172571063e-06,3.5979707527885024e-05,3.9574576271186404,127.99592804689995,-339.32,284.3,0.26090093224618666,0.00877923169185714,0.2516091737453205,0.27340947445691854,0.030332763882181254,0.015258408215823012,0.01229878302047067,0.056977229532386195,0.0019377090034811066,0.008219077322076374,2.299524715088097e-08,0.03680830075019342,-1.0586804361704854,0.0038043133938661213,-1.0622343354885684,-1.0501901620801841,0.3108159484106021,2.7672697921441,-2.72369384765625,6.08673095703125,29.913157894736848,0.007292845505553012,29.91,29.93,0.08135593220338982,0.0008421052631578768,0,1,0
0,0.021460717073352824,0.0020165449830634287,0.015137177538761842,0.024081873357121114,0.02146070691348735,0.0020165440283970177,0.01513717037256666,0.02408186195635605,1.476610803932623e-05,1.3874895691648885e-06,1.0415178494914085e-05,1.656960215099968e-05,1.476610803932623e-05,1.3874895691648885e-06,1.0415178494914085e-05,1.656960215099968e-05,-5.289489795918371,83.25512477583815,-175.25,254.69,0.26891952224412574,0.004611355052604984,0.2554653756673995,0.27395643396117014,0.04331398549211519,0.009150160824539668,0.01749753475689704,0.056395958339276735,0.04233188031146455,0.1266518805811127,1.6505860922499949e-07,0.5369862451586194,-1.0507615204725724,0.007065998823299144,-1.060580595819173,-1.0379524370258941,1.0747388929646304,2.9546850466539034,-2.75726318359375,6.90460205078125,29.90777777777778,0.01133115447465039,29.89,29.93,0.13605442176870747,-0.0003302373581011281,0,1,0
0,0.023974218724037752,0.00030771401037892656,0.023393819832631935,0.02476992688161029,0.02397420737423817,0.0003077138647019222,0.02339380875760302,0.02476991515510908,1.6495530071413135e-05,2.1172350890881504e-07,1.6096184946685404e-05,1.7043019355313955e-05,1.6495530071413135e-05,2.1172350890881504e-07,1.6096184946685404e-05,1.7043019355313955e-05,2.440169491525427,14.464837938305505,-26.56,36.46,0.27076094624787955,0.0010610149933829214,0.26844072092363763,0.2722949156329159,0.01939660415477981,0.007660530824002272,0.007643988008892261,0.03340744737108164,0.003935811936079355,0.016224908322036245,1.342027763640008e-07,0.0708328225652815,-1.0216551197126116,0.00852468142233512,-1.036185984543294,-1.0086643418165306,0.551143862836449,4.686467107439125,-5.560302734375,7.366943359375,29.93,0.0,29.93,29.93,0.16271186440677965,0.0,0,1,0
0,0.02435616496485666,0.00033688487850613684,0.024081873357121114,0.02476992688161029,0.024356153434237263,0.00033688471901915175,0.02408186195635605,0.02476991515510908,1.6758329279746625e-05,2.3179460853214286e-07,1.656960215099968e-05,1.7043019355313955e-05,1.6758329279746625e-05,2.3179460853214286e-07,1.656960215099968e-05,1.7043019355313955e-05,-1.590067796610171,10.549147125722982,-25.07,13.65,0.2718448898902455,0.0009643120506069194,0.270133942908201,0.27347535892969865,0.002768425110182267,0.001803612730651269,0.0007207912866392501,0.006768767901166445,9.448476676191925e-08,6.714980141560623e-08,5.750330835455064e-08,3.4561194166456144e-07,-1.000810417232661,0.0032747644275960184,-1.007501802594876,-0.996830526763741,-0.48835176983778883,3.501849252846929,-5.51910400390625,5.6854248046875,29.932105263157904,0.014355980733669014,29.91,29.95,0.16271186440677965,-0.0010877192982455908,0,1,0
0,0.021156475718986864,0.0051488232402288475,0.0027522140979566985,0.02476992688161029,0.02115646570315443,0.005148820802689073,0.00275221279501212,0.02476991515510908,1.4556773901364128e-05,3.5426626230963593e-06,1.8936688172571063e-06,1.7043019355313955e-05,1.4556773901364128e-05,3.5426626230963593e-06,1.8936688172571063e-06,1.7043019355313955e-05,0.1782312925170068,11.008795506517817,-23.72,29.23,0.2732316296197658,0.0008614967736966116,0.2718240217995085,0.2742789441353946,0.0016677596401228998,0.0007948793099129595,0.0006074871863475919,0.004027908138239032,0.008633391249318882,0.026801080637018596,1.7139317478459537e-07,0.11772229905590273,-0.9967074281777211,0.00033215529919715614,-0.9974358250307584,-0.9963669345909028,0.07368139830179901,2.51101880290442,-3.11126708984375,5.55572509765625,29.94111111111111,0.009938079899998854,29.93,29.95,0.16326530612244897,0.0003302373581011281,0,1,0
0,0.02020630656612088,0.005249933957021175,0.006192481720402572,0.03990710442037213,0.020206297000114507,0.0052499314716138844,0.00619247878877727,0.03990708552767574,1.3903007285882498e-05,3.6122321422781417e-06,4.260754838828489e-06,2.745819785022804e-05,1.3903007285882498e-05,3.6122321422781417e-06,4.260754838828489e-06,2.745819785022804e-05,-5.116440677966102,169.1269583234382,-402.93,518.63,0.27500700754723784,0.0019028538712758964,0.27155721171308783,0.2776129186264406,0.008122030698662491,0.0032468709876859116,0.0030564778985712913,0.01275990969202927,2.7958129977180045e-07,3.2069477895485745e-07,8.511788521237129e-08,1.3976159211892547e-06,-0.9983217201572266,0.00036974604417062344,-0.9987271731928048,-0.9975610427277201,-0.42402395243680213,3.618214984583645,-5.68695068359375,5.853271484375,29.929999999999996,0.012977713690460727,29.91,29.95,0.16271186440677965,0.0005614035087719177,0,1,0
0,0.023942403048103012,0.0005181092027235653,0.022017712783653588,0.02476992688161029,0.023942391713365513,0.0005181089574419257,0.02201770236009696,0.02476991515510908,1.6473639204179258e-05,3.5648652547051476e-07,1.514935053805685e-05,1.7043019355313955e-05,1.6473639204179258e-05,3.5648652547051476e-07,1.514935053805685e-05,1.7043019355313955e-05,5.127864406779666,90.44459145749857,-455.18,202.89,0.2732878031731097,0.0010517076300464762,0.2715463888575752,0.27526625938244925,0.0027470220395673472,0.0004731259763356226,0.0018651313441255778,0.0035285282364966846,0.00174642968673158,0.004840345762100192,1.462286174508387e-07,0.016554243655609535,-0.998211962793209,0.00044971404392886726,-0.9987219721162708,-0.9972851121275614,0.35409291190757836,2.5890011121591447,-2.57415771484375,5.82427978515625,29.926666666666677,0.01666666666666631,29.91,29.95,0.16271186440677965,-0.0013003095975231923,0,1,0
0,0.024592062705211682,0.0003012381254181755,0.024081873357121114,0.02476992688161029,0.024592051062914413,0.00030123798280696487,0.02408186195635605,0.02476991515510908,1.6920639397736103e-05,2.0726775765624173e-07,1.656960215099968e-05,1.7043019355313955e-05,1.6920639397736103e-05,2.0726775765624173e-07,1.656960215099968e-05,1.7043019355313955e-05,0.05545762711864391,8.641122320628781,-19.31,14.99,0.2736781145919992,0.0010231430674841357,0.27164565257379153,0.27593456372026653,0.0006922373584313358,0.0004443521943014219,0.00018251312334075705,0.0016645626038951035,1.9683547762105007e-07,1.4409204618702982e-07,5.150739319044126e-08,5.887085890304844e-07,-0.9950774146290409,0.001325284502405124,-0.9971144005179418,-0.9928717985380382,-0.1033328602982514,1.8499406221763277,-2.471923828125,4.14581298828125,29.924736842105265,0.014278589438158152,29.91,29.95,0.18983050847457628,-0.0007017543859648973,0,1,0
0,0.024840136424925472,0.00027492512843589156,0.024081873357121114,0.025457980406099465,0.024840124665185915,0.00027492499828169853,0.02408186195635605,0.02545796835386211,1.7091327233305187e-05,1.8916302448489327e-07,1.656960215099968e-05,1.7516436559628233e-05,1.7091327233305187e-05,1.8916302448489327e-07,1.656960215099968e-05,1.7516436559628233e-05,-0.5798639455782311,9.953217610291444,-20.95,15.26,0.273890287046874,0.0008863134093233944,0.27243617747209314,0.27548194718715135,8.721978541020316e-05,6.246025940646724e-05,2.4885660646196846e-05,0.00028739408139944616,0.00035912132895202204,0.0014779432062181313,4.648084743572728e-08,0.0064528349533493285,-0.9916574759957144,0.0004202515847311398,-0.9926490505979096,-0.9912405600116573,0.7161213801457331,2.397330438871647,-2.79388427734375,4.59136962890625,29.910000000000007,0.01333333333333305,29.89,29.93,0.16326530612244897,0.001981424148606769,0,1,0
0,0.02463510558289278,0.0003722403062877803,0.024081873357121114,0.025457980406099465,0.024635093920218266,0.00037224013006294005,0.02408186195635605,0.02545796835386211,1.695025517338751e-05,2.5612101219404944e-07,1.656960215099968e-05,1.7516436559628233e-05,1.695025517338751e-05,2.5612101219404944e-07,1.656960215099968e-05,1.7516436559628233e-05,0.7929830508474573,10.060745831926573,-22.45,18.3,0.27425187319533806,0.0006546935245081594,0.27274770294466133,0.2751533266643507,0.0030409778189557733,0.0026842351027993776,0.0004691591157102166,0.007805773232660402,0.00758858585141966,0.016935573693013364,7.331641639005126e-07,0.06026463760550094,-0.9957695108430988,0.002952237080026607,-1.0013610516524238,-0.9919176784848346,-0.27680096698776374,3.0087674242885365,-5.00640869140625,4.97589111328125,29.92333333333334,0.00942809041582043,29.91,29.93,0.16271186440677965,0.0008255933952528204,0,1,0
0,0.026263049836113977,0.002689928691568768,0.024081873357121114,0.041283211469350475,0.026263037402743206,0.0026899274181111524,0.02408186195635605,0.041283191925181796,1.8070366893927943e-05,1.8508131644448575e-06,1.656960215099968e-05,2.8405032258856593e-05,1.8070366893927943e-05,1.8508131644448575e-06,1.656960215099968e-05,2.8405032258856593e-05,-0.3672203389830512,9.27265191999661,-27.6,12.6,0.2736659075738514,0.001246225372447274,0.2711101966352514,0.27538508011035656,0.014756818422257768,0.003827245437211547,0.009362224981604082,0.020815639668111986,0.012820880513887776,0.02770624807689971,6.160394933063529e-08,0.10399061174645352,-1.0097201560221618,0.00443294084657629,-1.0164965575828735,-1.0021966799276125,-0.6383725490522739,3.0920630173409984,-4.742431640625,5.37872314453125,29.92684210526316,0.01974911898872981,29.91,29.95,0.16271186440677965,-0.0019649122807017124,0,1,0
0,0.02151097066088793,0.005655969576466566,0.004816374671424223,0.039219050895882956,0.021510960477231545,0.005655966898835171,0.00481637239127121,0.03921903232892271,1.480068516460916e-05,3.8916061167847895e-06,3.313920430199936e-06,2.6984780645913764e-05,1.480068516460916e-05,3.8916061167847895e-06,3.313920430199936e-06,2.6984780645913764e-05,-4.604983050847454,80.66822810547954,-181.69,162.34,0.2686614653038155,0.0038972629895778262,0.26191816377815974,0.27586308043437424,0.012095020565050572,0.005934091629089015,0.0046248269379112125,0.02484452241969381,0.013846683748412171,0.04466819604256396,4.93880397134383e-08,0.18906200096424375,-1.0187191687938326,0.0008095582895259044,-1.0196469724027408,-1.0170538639729072,0.07536743429185735,2.976455679981305,-4.44488525390625,5.81817626953125,29.9188888888889,0.009938079899998856,29.91,29.93,0.08135593220338982,0.0,0,1,0
0,0.02419888926264646,0.0003710419188500969,0.023393819832631935,0.02476992688161029,0.024198877806484068,0.00037104174319259174,0.02339380875760302,0.02476991515510908,1.6650115280985114e-05,2.5529645827456296e-07,1.6096184946685404e-05,1.7043019355313955e-05,1.6650115280985114e-05,2.5529645827456296e-07,1.6096184946685404e-05,1.7043019355313955e-05,5.24159863945578,16.211437210313697,-41.08,44.61,0.2733786473124951,0.000488123989216264,0.27253419716156874,0.27439992237019223,0.01520069584270212,0.005406083075845853,0.00671965079187152,0.025034044612782334,0.0027045745898943547,0.008004956286473219,1.1154669818380647e-07,0.03011886139508041,-1.0102136799332928,0.004328732632629777,-1.0168738654856304,-1.002972107370613,1.0771228878997092,2.925879721014347,-3.05023193359375,5.987548828125,29.893157894736838,0.014886458551295422,29.87,29.91,0.19047619047619047,-0.0019649122807017124,0,1,0
0,0.02458270143276966,0.00030621522048271236,0.024081873357121114,0.02476992688161029,0.02458268979490416,0.00030621507551526026,0.02408186195635605,0.02476991515510908,1.6914198347337277e-05,2.1069226221467554e-07,1.656960215099968e-05,1.7043019355313955e-05,1.6914198347337277e-05,2.1069226221467554e-07,1.656960215099968e-05,1.7043019355313955e-05,0.008711864406779282,9.536340326104298,-21.03,18.98,0.27282136638363075,0.00058227847097313,0.27187920772233515,0.27411739248761724,0.0025636580214880114,0.0015764236447886452,0.0007307960625864793,0.005972926434517674,1.420644851055703e-07,1.0815370815383159e-07,5.928052550230323e-08,4.700739183807756e-07,-0.9980268660619669,0.0019493086690693748,-1.0022128007286313,-0.9961509914732609,-0.355841778392123,3.870138217362266,-5.36346435546875,5.89447021484375,29.881111111111107,0.009938079899998852,29.87,29.89,0.16271186440677965,0.0009907120743033846,0,1,0
0,0.02440265506786266,0.0003432405580946351,0.024081873357121114,0.02476992688161029,0.02440264351523411,0.00034324039559876395,0.02408186195635605,0.02476991515510908,1.6790316928686752e-05,2.3616765213298445e-07,1.656960215099968e-05,1.7043019355313955e-05,1.6790316928686752e-05,2.3616765213298445e-07,1.656960215099968e-05,1.7043019355313955e-05,-0.8755254237288133,8.07270603267774,-26.38,11.79,0.27323290799155003,0.001048353540777275,0.2712411224042482,0.27504185554506105,0.006716254517212117,0.005136700715962837,0.0005442777199617433,0.01817480828507698,0.015841215411153225,0.029367756367084052,3.243031572730537e-07,0.10252194457659175,-1.002127030959181,0.004015941757371742,-1.0095957485000033,-0.9967306669631075,-0.2694510940286717,2.4280734022002664,-4.95758056640625,4.2388916015625,29.87736842105263,0.009647527778854194,29.87,29.89,0.18983050847457628,0.0006315789473684076,0,1,0
0,0.02683876809129884,0.006138678940124499,0.022705766308142764,0.04472347909179635,0.026838755385373315,0.0061386760339703405,0.022705755558849988,0.04472345791894695,1.846649149345618e-05,4.223735681281858e-06,1.5622767742371126e-05,3.0772118280427976e-05,1.846649149345618e-05,4.223735681281858e-06,1.5622767742371126e-05,3.0772118280427976e-05,-0.4621016949152538,8.869917680039375,-19.95,16.42,0.2745687779336346,0.0011874062997650652,0.27188247179623165,0.2762242741973663,0.026347622502517962,0.004897274721589848,0.019456886154510716,0.03392182998226492,0.016867293572584374,0.047926289103763134,3.365059375592949e-08,0.17560498097459531,-1.019523105816819,0.005394255330317798,-1.0281122869787518,-1.010614901766272,-0.15639761682996237,3.0212168752868815,-4.32281494140625,5.5511474609375,29.88111111111111,0.009938079899998854,29.87,29.89,0.18983050847457628,0.0,0,1,0
0,0.031107508324864256,0.0037705306600031257,0.026834087455077812,0.043347372042818,0.031107493598045134,0.003770528874970311,0.02683407475136817,0.04334735152144089,2.140361047532438e-05,2.594324453413988e-06,1.8463270968256787e-05,2.9825283871799426e-05,2.140361047532438e-05,2.594324453413988e-06,1.8463270968256787e-05,2.9825283871799426e-05,2.3949659863945607,70.79394087868606,-290.49,117.8,0.2615247858229832,0.0029016940308237136,0.25860915246238525,0.26985697885616516,0.010386117640033603,0.004873925674633156,0.004751033592902722,0.021267329416475165,0.005220776743760811,0.012403803364499769,3.309462176526168e-08,0.03955773691798345,-1.035288477531502,0.003514729720133132,-1.040506413805109,-1.0290076240394301,1.0476976115413694,2.4477672149182648,-3.1097412109375,4.59747314453125,29.884444444444437,0.008958064164775974,29.87,29.89,0.16326530612244897,0.0006398348813209359,0,1,0
0,0.02830317471006815,0.0004050779543700485,0.026834087455077812,0.028898248028545334,0.028303161310867887,0.0004050777625993124,0.02683407475136817,0.02889823434762726,1.947408067476564e-05,2.7871505030017655e-07,1.8463270968256787e-05,1.9883522581199616e-05,1.947408067476564e-05,2.7871505030017655e-07,1.8463270968256787e-05,1.9883522581199616e-05,-1.5673559322033903,12.792819057955262,-30.47,23.7,0.2588933756933784,0.001949650873437314,0.25448598017582236,0.2609016461992805,0.009204265353048843,0.002073386971378669,0.005591002052772151,0.011963559295702725,0.005933163711261585,0.01577207109252278,9.787543395201048e-08,0.06419080537096636,-1.0440617615508005,0.001603446388248937,-1.0462101364032448,-1.0409797102055143,-0.1877271212064303,2.075497482885569,-2.81829833984375,4.08477783203125,29.84473684210526,0.0142785894381597,29.83,29.87,0.16271186440677965,-0.002385964912280925,0,1,0
0,0.028444226315106836,0.0003259685933527275,0.028210194504056162,0.028898248028545334,0.028444212849130387,0.00032596843903369795,0.02821018114887423,0.02889823434762726,1.9571131636856193e-05,2.2428362716966758e-07,1.941010537688534e-05,1.9883522581199616e-05,1.9571131636856193e-05,2.2428362716966758e-07,1.941010537688534e-05,1.9883522581199616e-05,-0.5436949152542372,8.807285634399872,-22.36,19.41,0.25674568409843274,0.0014908126180954936,0.25381909251803775,0.2588881140085558,0.006134079754313899,0.0014234867683903078,0.0036450346020342676,0.008932290793155658,0.0018166158382837009,0.007488658114341688,8.270711428226551e-08,0.03269314419820865,-1.0466508184704688,0.00014570319454545457,-1.046811763685827,-1.0463355925416111,-0.24597139562689072,2.3928491470886315,-3.27606201171875,4.63104248046875,29.801111111111116,0.01369869778437521,29.77,29.81,0.16271186440677965,-0.0014860681114550768,0,1,0
0,0.02832177075127057,0.0003103366727118835,0.027522140979566984,0.028898248028545334,0.028321757343266602,0.00031033652579326817,0.027522127950121197,0.02889823434762726,1.9486875734341698e-05,2.1352803926196028e-07,1.8936688172571062e-05,1.9883522581199616e-05,1.9486875734341698e-05,2.1352803926196028e-07,1.8936688172571062e-05,1.9883522581199616e-05,0.4270847457627119,7.650506905301922,-15.54,21.39,0.2555122921186949,0.0013615256469661546,0.25216149908570745,0.25690767561711547,0.0013617220254942522,0.0008709111124528312,0.0003599428434127715,0.003260146737095875,1.693536965619609e-07,1.0737639904646644e-07,5.657352111776426e-08,3.9526807297379785e-07,-1.0451304722290786,0.0008063036804966702,-1.0463275980984237,-1.0437190888890326,-0.38285030620565486,2.3876815851882194,-3.44390869140625,4.46014404296875,29.767894736842102,0.015754346891679417,29.73,29.79,0.18983050847457628,-0.002315789473684161,0,1,0
0,0.02084755372839989,0.0036895291296393786,0.017201338112229368,0.035090729748947905,0.02084754385881632,0.003689527382954057,0.01720132996882575,0.03509071313640453,1.4344219238202645e-05,2.5385911177284305e-06,1.1835430107856916e-05,2.4144277420028106e-05,1.4344219238202645e-05,2.5385911177284305e-06,1.1835430107856916e-05,2.4144277420028106e-05,-0.4898299319727913,57.92409321224522,-248.77,97.89,0.2566888658186507,0.001137981226473036,0.2544783515297491,0.2583322262489592,0.0012457372788737464,0.0008368526665771335,0.0002474659464049778,0.0023651204774840567,0.0014579412662074017,0.004926664757032633,1.0845059538605595e-07,0.021235092204723978,-1.042200025148719,0.0007738323950765343,-1.0435477198780096,-1.0410597147577416,1.3401722493893455,1.7402316905286175,-1.57928466796875,5.02471923828125,29.731111111111115,0.012422599874998568,29.71,29.75,0.10884353741496598,-0.0015892672858616795,0,1,0
0,0.021315617350501335,0.0014141254779038502,0.018577445161207715,0.022705766308142764,0.021315607259328587,0.0014141248084329945,0.018577436366331808,0.022705755558849988,1.4666271758144291e-05,9.729930978783377e-07,1.2782264516485466e-05,1.5622767742371126e-05,1.4666271758144291e-05,9.729930978783377e-07,1.2782264516485466e-05,1.5622767742371126e-05,0.2795593220338978,14.089123421592054,-31.53,25.78,0.2566848851109983,0.0008749463031461772,0.2551837145364521,0.25809837495963917,0.0007127714863221432,0.00042327363039798484,0.00020861725420924239,0.0015986968037672658,1.0025483145843668e-07,3.43081386628923e-08,6.369992692004112e-08,1.769826440158051e-07,-1.040921243882483,0.000256015725117872,-1.0415821218389565,-1.0406846533007106,-0.2788783969103902,3.255325032108772,-4.42657470703125,6.18438720703125,29.690000000000005,0.014907119849998282,29.67,29.71,0.05423728813559322,-0.0020227038183694103,0,1,0
0,0.021659738990507122,0.0005682262230162787,0.019953552210186066,0.023393819832631935,0.02165972873642144,0.0005682259540083995,0.01995354276383787,0.02339380875760302,1.4903045641217652e-05,3.909696852699704e-07,1.372909892511402e-05,1.6096184946685404e-05,1.4903045641217652e-05,3.909696852699704e-07,1.372909892511402e-05,1.6096184946685404e-05,0.40823728813559335,8.95108535856053,-17.67,24.26,0.25634910302467273,0.0009235843982525128,0.2542296002027462,0.25780135980501995,0.0035007504333190733,0.002988503812118973,0.00014348771439613226,0.007757138925509418,0.004815174150833015,0.01423746173162749,1.626984689334643e-07,0.06264639271841335,-1.0448850979269941,0.0022400836816004162,-1.048951015981185,-1.0417769589598058,-1.0117093031814612,2.685674993198833,-5.18951416015625,3.94439697265625,29.65315789473684,0.014886458551296897,29.63,29.67,0.16271186440677965,-0.002526315789473892,0,1,0
0,0.023889967272059474,0.008182110919540431,0.002064160573467524,0.05022790728770975,0.02386187215811529,0.008263651051145375,-0.00206415959625909,0.050227883508971186,1.641823746662709e-05,5.685831539119415e-06,-1.4202516129428298e-06,3.455945591494219e-05,1.641823746662709e-05,5.685831539119415e-06,-1.4202516129428298e-06,3.455945591494219e-05,1.0859863945578239,10.05457560982523,-12.72,52.23,0.25439468226998807,0.0029411687489388984,0.24479311036502824,0.2573612420662344,0.005859720926700792,0.0018059707436708402,0.002688252231396333,0.008375519726319947,0.0030734318269936196,0.009505765450923447,3.3287254508351793e-08,0.03920296143285054,-1.0525963828239389,0.0015558853277352431,-1.0542215798932482,-1.049453643945975,0.7373705691202699,2.329903963535145,-2.62603759765625,5.572509765625,29.61222222222223,0.011331154474650393,29.59,29.63,0.16326530612244897,-0.001816305469556205,0,1,0
0,0.024844817061146544,0.0026266335919322035,0.018577445161207715,0.029586301553034506,0.024844805299191048,0.0026266323484395566,0.018577436366331808,0.029586287546380288,1.7094547758504644e-05,1.8072627892920217e-06,1.2782264516485466e-05,2.035693978551389e-05,1.7094547758504644e-05,1.8072627892920217e-06,1.2782264516485466e-05,2.035693978551389e-05,0.5257627118644006,62.72834522166819,-138.1,132.3,0.2699859459661158,0.005962650837291795,0.24806987316822984,0.274748722915829,0.044433169218243,0.011143371168476038,0.008904130205844624,0.054479909674228444,0.05114196917784915,0.12592502472994985,1.8124939638042292e-07,0.562947503748821,-1.0481607903787842,0.0050196641832431395,-1.0540097434113491,-1.0379457098589124,0.7226759387600806,5.5855495336061765,-9.37347412109375,9.60540771484375,29.595263157894735,0.008806947647726925,29.59,29.61,0.10847457627118644,0.0006666666666666524,0,1,0
0,0.025100006612953026,0.0003874888033178228,0.024081873357121114,0.025457980406099465,0.025099994730186537,0.0003874886198740885,0.02408186195635605,0.02545796835386211,1.727013166278905e-05,2.6661278438476315e-07,1.656960215099968e-05,1.7516436559628233e-05,1.727013166278905e-05,2.6661278438476315e-07,1.656960215099968e-05,1.7516436559628233e-05,-2.145288135593219,4.447154012993362,-13.75,5.92,0.27296414210615005,0.0005769330544587571,0.2722299739332221,0.27425975201916414,0.02446346474813763,0.01030097401947505,0.009045986138120047,0.03963936040232706,0.002963228416673677,0.010582117642537265,6.161186777431382e-08,0.046051568108871455,-1.0212919841324894,0.009166079137887131,-1.0363063237515755,-1.0067310238045468,-1.6723083628655369,3.941290697743086,-9.46502685546875,4.205322265625,29.617777777777786,0.009749960430435484,29.61,29.63,0.16271186440677965,0.0015892672858616795,0,1,0
0,0.024924387876903757,0.00038318376546397947,0.024081873357121114,0.025457980406099465,0.024924376077278113,0.0003831835840583223,0.02408186195635605,0.02545796835386211,1.7149296686894715e-05,2.6365069072097864e-07,1.656960215099968e-05,1.7516436559628233e-05,1.7149296686894715e-05,2.6365069072097864e-07,1.656960215099968e-05,1.7516436559628233e-05,-0.3564406779661011,3.9553627028235554,-8.28,8.89,0.27279998594305743,0.000644358083646521,0.27210631414935377,0.2738754493956453,0.0032652958364375005,0.002131508807684457,0.0008491849384453619,0.008001693105739774,4.438831289071819e-07,6.190320262711603e-07,6.127168489244994e-08,2.1511486223528553e-06,-0.9982365003978771,0.002970610386832231,-1.0052716559451638,-0.9953984750787938,0.3153292180290885,1.7026262891490307,-1.93328857421875,3.82843017578125,29.640526315789465,0.00998613997947888,29.63,29.65,0.16271186440677965,0.001017543859649101,0,1,0
0,0.024723120519400114,0.00017324678047185089,0.024081873357121114,0.02476992688161029,0.02472310881505784,0.0001732466984539024,0.02408186195635605,0.02476991515510908,1.701081410331977e-05,1.1920294504460891e-07,1.656960215099968e-05,1.7043019355313955e-05,1.701081410331977e-05,1.1920294504460891e-07,1.656960215099968e-05,1.7043019355313955e-05,0.2578571428571426,8.296182375454551,-20.28,15.17,0.2713258642003444,0.0009384398233340325,0.26907593795989776,0.27273582936161783,0.01157677912760356,0.008873519426840011,0.0010839492351837421,0.028723777998766756,0.026263789179854946,0.0480183292818259,7.832328868251359e-07,0.1933031101632423,-1.0123349857281307,0.00939651041901909,-1.029011565577341,-0.9988359276543141,0.4201491476584309,2.1309056352919167,-2.43377685546875,4.534912109375,29.64999999999999,7.105427357601002e-15,29.65,29.65,0.19047619047619047,0.0,0,1,0
0,0.02764766425768325,0.00629242299068044,0.016513284587740193,0.0516040143366881,0.027647651168812633,0.006292420011741257,0.01651327677007272,0.05160398990647725,1.902305482470948e-05,4.32951971697615e-06,1.1362012903542639e-05,3.550629032357074e-05,1.902305482470948e-05,4.32951971697615e-06,1.1362012903542639e-05,3.550629032357074e-05,-0.7307796610169497,72.73086180373613,-347.71,247.63,0.2703223881351172,0.003971162532723135,0.2575359854189899,0.2729334044264528,0.043381780046991926,0.007573618794594897,0.03187382528097821,0.05524809914256766,0.026423526229165765,0.0642979412373598,2.7129874236031526e-08,0.2140495564665491,-1.0484836744983035,0.009899519492985726,-1.0630772091419183,-1.0312129502254883,-0.9905401757145904,4.511456190009442,-6.87713623046875,13.29193115234375,29.665555555555564,0.008314794192832277,29.65,29.67,0.21694915254237288,0.0011558307533541539,0,1,0
0,0.031013895600444038,0.008858076533259226,0.017201338112229368,0.04747569318975305,0.031013880917942674,0.008858072339696375,0.01720132996882575,0.04747567071395907,2.1339199971336036e-05,6.094825008113827e-06,1.1835430107856916e-05,3.2665787097685084e-05,2.1339199971336036e-05,6.094825008113827e-06,1.1835430107856916e-05,3.2665787097685084e-05,3.191288135593212,97.42713335756581,-341.79,217.02,0.26088788839996396,0.006356042573396406,0.24957902185616831,0.2697509392412508,0.0413148430710934,0.014343182117929357,0.02009934319740364,0.06215187721846858,0.03119420428467279,0.08812928045897434,4.4581727975945284e-08,0.3093669893143529,-1.068099614151145,0.0015096400072728508,-1.0695845400882467,-1.0642155920255303,-1.4414117590665225,14.373140673688944,-15.78216552734375,24.88861083984375,29.65631578947368,0.009296590385609713,29.65,29.67,0.08135593220338982,-0.0008070175438597752,0,1,0
0,0.03388663608109181,0.0017152454042842053,0.028898248028545334,0.037842943846904606,0.03388662003858673,0.0017152445922580973,0.02889823434762726,0.03784292593141665,2.33157973124781e-05,1.1801795283470207e-06,1.9883522581199616e-05,2.6037946237285214e-05,2.33157973124781e-05,1.1801795283470207e-06,1.9883522581199616e-05,2.6037946237285214e-05,-2.150542372881359,70.0267618216868,-354.35,145.97,0.2587804727510872,0.0019751435241911826,0.2561237298092043,0.26268360240836275,0.022890845159192312,0.005306456729302885,0.01188510263832807,0.028510663418998092,0.011439355275001884,0.02198661017413586,4.5819506300226465e-08,0.06065307460557501,-1.0581776010718995,0.005820963032457019,-1.0665881963793196,-1.0477749774665892,4.5105785307143,7.7114993575121895,-12.18109130859375,13.18511962890625,29.653333333333325,0.0074535599250004645,29.65,29.67,0.18983050847457628,0.000928792569659588,0,1,0
0,0.024311224531950795,0.0038550829249746213,0.0013761070489783493,0.03371462269996956,0.024311213022607085,0.0038550810999133274,0.00137610639750606,0.03371460673889847,1.6727407885771123e-05,2.652500882247708e-06,9.468344086285532e-07,2.3197443011399553e-05,1.6727407885771123e-05,2.652500882247708e-06,9.468344086285532e-07,2.3197443011399553e-05,0.7411904761904744,54.45878193216542,-205.85,101.14,0.26905840127479075,0.0064738613942911735,0.25698734251517397,0.2745601027680891,0.02682044650423631,0.00999081031537781,0.008300266825603963,0.0373368654652256,0.02378200675725838,0.08053899752227833,1.4040110679625073e-07,0.36007353541735954,-1.0329468793064638,0.008208155149902049,-1.046348941754375,-1.0195250204933204,-4.414758490037548,7.005894242759343,-15.28778076171875,4.53338623046875,29.69105263157895,0.01997227995895776,29.67,29.71,0.05442176870748299,0.003157894736842038,0,1,0
0,0.02641283019518651,0.0003716908518695308,0.025457980406099465,0.026834087455077812,0.026412817690907097,0.00037169067590481155,0.02545796835386211,0.02683407475136817,1.817342370030929e-05,2.5574295850298084e-07,1.7516436559628233e-05,1.8463270968256787e-05,1.817342370030929e-05,2.5574295850298084e-07,1.7516436559628233e-05,1.8463270968256787e-05,-0.8468135593220337,10.395868019578453,-22.7,15.79,0.274108326196036,0.0009973701379673578,0.2712565492771567,0.2753746619375799,0.013597866830511432,0.005288963497986586,0.005295754389685304,0.020465555219441198,0.004953026215889276,0.017129412787135825,5.450035732434966e-08,0.07415260107113225,-1.0072511152615364,0.0062015614945783995,-1.018089388607173,-0.9979367847806778,3.745090580489596,1.411175271821828,1.04522705078125,5.55267333984375,29.736666666666665,0.013333333333333051,29.71,29.75,0.18983050847457628,0.0023116615067078974,0,1,0
0,0.026727160218163955,0.0007141188538392487,0.025457980406099465,0.028898248028545334,0.026727147565075448,0.0007141185157633372,0.02545796835386211,0.02889823434762726,1.8389699375694442e-05,4.913515290597302e-07,1.7516436559628233e-05,1.9883522581199616e-05,1.8389699375694442e-05,4.913515290597302e-07,1.7516436559628233e-05,1.9883522581199616e-05,2.59728813559322,12.309567070346166,-20.91,57.47,0.2742502945857075,0.0006448874636316656,0.2729605534280793,0.275253473948269,0.0019154668505889266,0.0012488514906819586,0.0004985399790582304,0.004687425064978487,1.806305948827158e-07,1.5300792821529674e-07,4.998674868472719e-08,5.495735134163071e-07,-0.9928348508231405,0.0019168869395409815,-0.9971062478555449,-0.9909891768929154,-0.2636017337922127,1.0782710629695447,-2.58026123046875,1.51519775390625,29.781578947368427,0.009874559494364903,29.77,29.79,0.16271186440677965,0.001543859649122774,0,1,0
0,0.026866851908624957,0.0006386967810873293,0.026146033930588636,0.028210194504056162,0.026866839189404013,0.0006386964787174991,0.02614602155261514,0.02821018114887423,1.84858146446527e-05,4.3945715521387216e-07,1.7989853763942512e-05,1.941010537688534e-05,1.84858146446527e-05,4.3945715521387216e-07,1.7989853763942512e-05,1.941010537688534e-05,-3.1547796610169496,26.710824921785893,-115.61,58.37,0.2755676028482507,0.00160698593000073,0.2729171232084246,0.2787521020262277,0.0025931266078345673,0.003001672464065317,0.0002078507791701765,0.00785897027595815,0.004875872319164272,0.012718036620731756,1.985009985550068e-07,0.05048871458326992,-0.9919339575604549,0.000584723577291806,-0.9927597308893973,-0.9910383260662871,0.9847945764572991,1.7579365510797305,-1.58538818359375,5.0811767578125,29.80555555555556,0.02543449587168883,29.79,29.85,0.05423728813559322,0.0036738906088752267,0,1,0
0,0.02693238081571915,0.00025379236587103597,0.026146033930588636,0.027522140979566984,0.02693236806547577,0.00025379224572144967,0.02614602155261514,0.027522127950121197,1.853090199744452e-05,1.7462256648735812e-07,1.7989853763942512e-05,1.8936688172571062e-05,1.853090199744452e-05,1.7462256648735812e-07,1.7989853763942512e-05,1.8936688172571062e-05,1.3455442176870753,12.850059035694507,-29.39,18.25,0.2770411034825347,0.0013956172857000112,0.2743404762440002,0.2793809261013768,0.005624365766563146,0.0012073508990536924,0.0034671798764164636,0.007287766223271717,0.0024674510336991184,0.006999136489936176,5.652622438179211e-08,0.02386835716337693,-0.9908811693075494,0.0017825032020162414,-0.9927688434543546,-0.9872001767365185,0.20970990580897178,4.8061487091404045,-6.292724609375,7.33489990234375,29.84222222222222,0.016517854163688485,29.83,29.87,0.13605442176870747,0.0022497420020642176,0,1,0
0,0.02721530629972721,0.0003602308063419207,0.026146033930588636,0.028210194504056162,0.027215293415542074,0.00036023063580258073,0.02614602155261514,0.02821018114887423,1.872556968956606e-05,2.4785784125280355e-07,1.7989853763942512e-05,1.941010537688534e-05,1.872556968956606e-05,2.4785784125280355e-07,1.7989853763942512e-05,1.941010537688534e-05,-0.7248474576271179,10.439055053042857,-23.01,14.65,0.27846993397519954,0.0015422813272007632,0.27467931904463067,0.28084040371831653,0.001317320571379181,0.0008343085929959085,0.0003507937687199377,0.003118319376285027,8.837069949943889e-08,2.293718921319023e-08,5.447799697466671e-08,1.3419038203885125e-07,-0.9808982905640904,0.003294232901568625,-0.9865712445096182,-0.9760544030573781,-1.902340304466986,4.012913235867419,-7.68280029296875,4.60052490234375,29.866842105263164,0.01172160918490506,29.85,29.89,0.16271186440677965,0.00014035087719297944,0,1,0
0,0.027217899625201027,0.0006376669011680844,0.02476992688161029,0.030274355077523685,0.027217886739788224,0.0006376665992858174,0.02476991515510908,0.03027434074513332,1.8727354034608954e-05,4.387485433765731e-07,1.7043019355313955e-05,2.083035698982817e-05,1.8727354034608954e-05,4.387485433765731e-07,1.7043019355313955e-05,2.083035698982817e-05,0.06661016949152553,9.366462098245139,-20.36,14.06,0.2802648334007974,0.0004917746881532944,0.27934937845008506,0.2809655071510161,0.001050415248448098,0.0011280148071403514,0.00012912393919832946,0.003364943385682752,0.004003128234998845,0.009931361041685842,1.0605635284485077e-07,0.03867128298693867,-0.9764763600699953,0.0017399798446419174,-0.9806868206372792,-0.9749671553679167,1.313800202220854,2.6183156545274677,-1.69830322265625,6.41326904296875,29.89888888888889,0.009938079899998854,29.89,29.91,0.16271186440677965,0.0003302373581011281,0,1,0
0,0.02341241587383439,0.0010457690073914412,0.021329659259164413,0.028898248028545334,0.023412404790001763,0.0010457685123067533,0.02132964916134393,0.02889823434762726,1.6108980006261437e-05,7.19544370047862e-07,1.4675933333742575e-05,1.9883522581199616e-05,1.6108980006261437e-05,7.19544370047862e-07,1.4675933333742575e-05,1.9883522581199616e-05,0.10186440677966083,13.451595869607504,-32.44,34.58,0.2842044696923025,0.0017899374139748441,0.28005284133249014,0.2871528401569804,0.028436410382739235,0.01210881182022334,0.004582384024868344,0.050959881719436696,0.04648262072407517,0.060080660276050954,2.228111054214388e-06,0.2359643601588146,-0.9939264863232488,0.008187197658121422,-1.0082784034623826,-0.981678154409812,0.06179241625310174,5.125394227030242,-6.60247802734375,7.68280029296875,29.913157894736845,0.014886458551295419,29.89,29.93,0.16271186440677965,-0.0002807017543859589,0,1,0
0,0.018530638798997558,0.008380399108190639,0.004128321146935048,0.04059515794486131,0.018530630026280588,0.008380395140768339,0.00412831919251818,0.04059513872642877,1.2750059264491297e-05,5.766157683420006e-06,2.8405032258856597e-06,2.7931615054542318e-05,1.2750059264491297e-05,5.766157683420006e-06,2.8405032258856597e-06,2.7931615054542318e-05,-0.7351700680272111,53.73198482913654,-149.55,132.61,0.2746315586718176,0.009684888451173284,0.2629624362998255,0.2875668202274139,0.03384041137836703,0.014736746440644351,0.014622158685917106,0.05614174211338628,0.0019233911827390426,0.007923255402994451,3.2740388511420804e-08,0.03459180677469281,-1.0251105869901902,0.009060839611925662,-1.0395420286520252,-1.0100534258484106,-5.129523549423029,4.53653725022966,-12.200927734375,5.816650390625,29.91444444444446,0.010657403385139147,29.89,29.93,0.05442176870748299,-0.0010319917440660255,0,1,0
0,0.019457404770758496,0.013750249826499883,0.006192481720402572,0.0488518002387314,0.019457395559294877,0.013750243316899675,0.00619247878877727,0.04885177711146513,1.338772325397584e-05,9.460898897825292e-06,4.260754838828489e-06,3.3612621506313634e-05,1.338772325397584e-05,9.460898897825292e-06,4.260754838828489e-06,3.3612621506313634e-05,-5.117220338983042,57.14926438189847,-141.23,170.72,0.2679302342183776,0.008442910479694315,0.25542508230405325,0.282066362313476,0.04336816634871857,0.015783527877435918,0.0165100167921338,0.06569328018964406,0.035242975847325705,0.10061364137778442,3.8270429936204664e-08,0.3581684206601756,-1.0525224773284259,0.00656728546838659,-1.062565400515265,-1.041082310256424,5.764698545791479,2.668738518403184,1.83868408203125,11.49444580078125,29.87555555555555,0.021914536581463008,29.83,29.89,0.08135593220338982,-0.00344685242518069,0,1,0
0,0.034156278678526796,0.01131407793729304,0.011008856391826794,0.05573233548362315,0.03415626250836832,0.011314072581017695,0.01100885118004848,0.05573230909899543,2.3501325676331027e-05,7.784683830293183e-06,7.574675269028425e-06,3.8346793549456406e-05,2.3501325676331027e-05,7.784683830293183e-06,7.574675269028425e-06,3.8346793549456406e-05,5.583050847457632,78.88247631341449,-238.12,205.33,0.25584525919414575,0.002910279084061447,0.25154891032594917,0.26174395610472334,0.027833024992785,0.009728151796227238,0.013937682763674231,0.04138042873469276,0.03106668240531673,0.05323504932872745,1.956044703432802e-07,0.18566550390356457,-1.070547202173193,0.00379511783698112,-1.0759443455759794,-1.063550894106437,-0.6867288064128412,2.072006134762674,-4.14581298828125,4.87823486328125,29.85315789473685,0.0097617036794694,29.83,29.87,0.10847457627118644,-0.0005964912280701066,0,1,0
0,0.03219341592813974,0.0064115764313344365,0.026146033930588636,0.04541153261628553,0.03219340068723354,0.006411573395986015,0.02614602155261514,0.045411511117699976,2.2150772321589077e-05,4.41150358414801e-06,1.7989853763942512e-05,3.124553548474225e-05,2.2150772321589077e-05,4.41150358414801e-06,1.7989853763942512e-05,3.124553548474225e-05,-0.7667346938775518,46.89908738452212,-95.34,153.2,0.25011274559698365,0.004476985545639406,0.24437440933031057,0.25619659284337465,0.019715287231113356,0.009110988853651126,0.00795927236102662,0.03348598791054002,0.0018104132937078249,0.007452478506158399,5.4285111072971404e-08,0.03253774478360785,-1.0782422744071176,0.0008867277809375253,-1.0791932653692016,-1.0763340719393986,-0.5988118666277334,2.9156074140744552,-4.27093505859375,5.08575439453125,29.854444444444457,0.008314794192830807,29.85,29.87,0.13605442176870747,-0.0008255933952528204,0,1,0
0,0.027873188696143063,0.00045659600338259144,0.026834087455077812,0.028898248028545334,0.027873175500505356,0.0004565957872223416,0.02683407475136817,0.02889823434762726,1.9178227562527302e-05,3.1416219193548877e-07,1.8463270968256787e-05,1.9883522581199616e-05,1.9178227562527302e-05,3.1416219193548877e-07,1.8463270968256787e-05,1.9883522581199616e-05,1.7092881355932212,10.856002721373526,-25.42,36.55,0.24519380632024437,0.0009854803442658766,0.24183724311147908,0.2460656141778306,0.005946349969786951,0.0017983442607759186,0.002631655956870289,0.00820291728175538,0.0016953271202011777,0.00410346366815079,6.507765963614798e-08,0.015764402115767517,-1.0789348930269378,0.00020244126700387502,-1.0792029224583242,-1.0786329448054843,-0.11187759285825062,2.918293848912623,-4.56695556640625,5.50537109375,29.811052631578946,0.01209381609797454,29.79,29.83,0.16271186440677965,-0.0013333333333333049,0,1,0
0,0.02809861825684167,0.0002536161887631062,0.027522140979566984,0.028210194504056162,0.028098604954481805,0.00025361606869692404,0.027522127950121197,0.02821018114887423,1.9333335019428943e-05,1.7450134732208695e-07,1.8936688172571062e-05,1.941010537688534e-05,1.9333335019428943e-05,1.7450134732208695e-07,1.8936688172571062e-05,1.941010537688534e-05,-0.646271186440678,5.422635827371078,-12.18,8.51,0.24280485200369617,0.0008214634565982252,0.24092619340973298,0.24403663173360532,0.0009969857495918985,0.000615711018438463,0.00028332367098328346,0.0023338477563264242,1.4827968995712038e-07,4.798556223240801e-08,9.708770314087456e-08,2.7478324112623076e-07,-1.0792096940539875,0.0005183516176630684,-1.0802566064678945,-1.0786299654826215,0.2599140371996684,3.2111156261593123,-4.2755126953125,5.85174560546875,29.780000000000005,0.016666666666666313,29.75,29.79,0.16271186440677965,-0.0023323013415892176,0,1,0
0,0.028327210409581475,0.0002935023910710538,0.027522140979566984,0.028898248028545334,0.028327196999002293,0.0002935022521220713,0.027522127950121197,0.02889823434762726,1.949061850687075e-05,2.0194516341380935e-07,1.8936688172571062e-05,1.9883522581199616e-05,1.949061850687075e-05,2.0194516341380935e-07,1.8936688172571062e-05,1.9883522581199616e-05,0.13908474576271185,4.372094193505666,-9.66,6.58,0.24145986346921147,0.0008749009001536578,0.239922312191023,0.2429933986951831,0.00010167513454166495,6.649948202739973e-05,2.6478469797210607e-05,0.00025003347704822393,1.9783784817866062e-07,1.091320810254116e-07,8.852432877145752e-08,4.312602049543271e-07,-1.0823757954691293,0.0012510149179893004,-1.0845144765172279,-1.0804352778796207,0.5225269137777703,2.1438964822183895,-2.50396728515625,4.534912109375,29.761578947368417,0.009874559494364903,29.75,29.77,0.16271186440677965,-0.0009824561403508562,0,1,0
0,0.02544861913365742,0.008829635338541128,0.0027522140979566985,0.0488518002387314,0.025448607085851855,0.008829631158442819,0.00275221279501212,0.04885177711146513,1.750999550922941e-05,6.075255962376005e-06,1.8936688172571063e-06,3.3612621506313634e-05,1.750999550922941e-05,6.075255962376005e-06,1.8936688172571063e-06,3.3612621506313634e-05,0.9549319727891165,27.262545246082432,-109.49,158.35,0.24298862160980964,0.00582461237681244,0.2387952589701189,0.2562671919156808,0.008984441308280905,0.016741407666878087,5.549707445413565e-06,0.049239518317571285,0.029995661939419636,0.1236727948648337,1.469449071907626e-07,0.5399116581706228,-1.086891308783055,0.0012887442656655055,-1.088998901249634,-1.0847669735311736,-0.5988823864655223,2.682253825972625,-3.814697265625,4.88739013671875,29.734444444444446,0.008314794192830805,29.73,29.75,0.19047619047619047,0.00016511867905056406,0,1,0
0,0.028656499492914017,0.009802883320858439,0.008256642293870096,0.053668174910155624,0.028656485926443757,0.009802878680008119,0.00825663838503636,0.05366814950273634,1.971718680671082e-05,6.7449020327674645e-06,5.681006451771319e-06,3.6926541936513574e-05,1.971718680671082e-05,6.7449020327674645e-06,5.681006451771319e-06,3.6926541936513574e-05,0.04637288135593421,57.96493911705601,-149.39,160.38,0.2502817993199166,0.005249816589567572,0.2418029051679635,0.2613459192660236,0.0334601855161543,0.008643992131530815,0.020337051938131078,0.049545788245420386,0.025067362965524823,0.06885979056280207,7.320922013054343e-08,0.2885072273320589,-1.0915103777058695,0.0014228714520443343,-1.0939250481101985,-1.0892496451870126,0.2096480920822991,3.925640749096644,-4.73785400390625,7.53631591796875,29.730000000000004,3.552713678800501e-15,29.73,29.73,0.16271186440677965,0.0,0,1,0
0,0.028828038485230106,0.011750267155577336,0.0027522140979566985,0.05298012138566645,0.02882802483755044,0.011750261592802654,0.00275221279501212,0.05298009630398331,1.983521470320835e-05,8.084805075112735e-06,1.8936688172571063e-06,3.64531247321993e-05,1.983521470320835e-05,8.084805075112735e-06,1.8936688172571063e-06,3.64531247321993e-05,-1.8294915254237305,95.18963624730371,-187.38,180.25,0.25135151156119445,0.005505734184540092,0.242184394385805,0.25971586319882856,0.04223528173323162,0.004999620586240242,0.031649984489479754,0.049098758864116084,0.03018737708997917,0.07553441774906967,4.474601777992859e-08,0.2673797198447728,-1.0974420264032996,0.002074178765073755,-1.1010908218964666,-1.0942369144432795,-0.46203414500499185,2.8106246838920734,-4.119873046875,5.06591796875,29.741578947368424,0.009874559494364903,29.73,29.75,0.10847457627118644,0.0004210526315789384,0,1,0
0,0.034937312409028025,0.010105262077752267,0.0027522140979566985,0.059860656630558194,0.034937295869114995,0.010105257293750742,0.00275221279501212,0.05986062829151361,2.40387181785256e-05,6.952954605187585e-06,1.8936688172571063e-06,4.1187296775342064e-05,2.40387181785256e-05,6.952954605187585e-06,1.8936688172571063e-06,4.1187296775342064e-05,-1.2019322033898296,65.04393564922995,-175.38,118.61,0.24565318849364357,0.0042518241636927585,0.23792956690894185,0.25223544946791504,0.035716594385308074,0.00776924826551864,0.021425088733759576,0.046569525336575116,0.026945293567172898,0.07357092411051869,1.1219739159962216e-07,0.30028581450896874,-1.1068374447592801,0.003550990233107158,-1.113236124543581,-1.101577692412861,0.9574239164489121,2.937308906992323,-3.52020263671875,5.7769775390625,29.75555555555555,0.016063146994222947,29.73,29.77,0.10847457627118644,0.0026625386996903455,0,1,0
0,0.031978106661973045,0.012303913925178775,0.0,0.06674119187544994,0.031978091522997965,0.012303908100298374,0.0,0.0667411602790439,2.2002628162415903e-05,8.465743325573615e-06,0.0,4.592146881848483e-05,2.2002628162415903e-05,8.465743325573615e-06,0.0,4.592146881848483e-05,2.3445238095238157,116.60784260977722,-324.27,265.11,0.2525841825617072,0.009327415218316183,0.23788073113834074,0.2700067371332268,0.07241545530310521,0.018328202403118943,0.04200757186551746,0.10037132179548142,0.07231692968969325,0.18856775655719937,5.376169820436871e-08,0.6964163926632533,-1.1249002164048718,0.007168629263885572,-1.137646649998659,-1.114175216248546,-0.12395625151405039,2.880453012343977,-4.24041748046875,5.56640625,29.795263157894745,0.019295055557708392,29.77,29.83,0.05442176870748299,0.0029473684210525684,0,1,0
0,0.028037010963878596,0.013835721568448157,0.0,0.05504428195913397,0.028018275154664204,0.013873590268381402,-0.00068805319875303,0.055044255900242395,1.9278063843709247e-05,9.545768162348726e-06,-4.734172043142766e-07,3.7873376345142124e-05,1.9278063843709247e-05,9.545768162348726e-06,-4.734172043142766e-07,3.7873376345142124e-05,8.777559322033897,107.34628221744565,-334.44,265.5,0.24916011095407795,0.009864630522600379,0.23673088355267052,0.2669737668982618,0.09325955663312036,0.0237662839738146,0.05723732419932301,0.13034920894456353,0.08869336642239156,0.23524293517357833,3.9219993475114734e-08,0.9703478954001714,-1.1527255392248457,0.007911394561302462,-1.1648440741053774,-1.1392768230393036,-0.31458150145802627,1.9343593407329094,-2.91900634765625,3.19366455078125,29.790000000000006,7.105427357601002e-15,29.79,29.79,0.13559322033898305,0.0,0,1,0
0,0.03225018445527977,0.008313505496590184,0.011008856391826794,0.05573233548362315,0.032250169187498436,0.008313501560836446,0.01100885118004848,0.05573230909899543,2.2189832069784683e-05,5.720131341771832e-06,7.574675269028425e-06,3.8346793549456406e-05,2.2189832069784683e-05,5.720131341771832e-06,7.574675269028425e-06,3.8346793549456406e-05,-2.9704745762711946,79.72407220699596,-191.86,204.97,0.24341709888371296,0.006737760522991937,0.23429609518714264,0.2559523296984952,0.09244814510125492,0.012425730405696276,0.07308028094818199,0.11340617199036876,0.055975597876669524,0.16496357468711717,5.94769948847329e-08,0.6847079835959045,-1.1701154869440684,0.001783665512915446,-1.17203444831365,-1.1659460869219735,0.4993930939705141,2.274123007578058,-2.80914306640625,4.44183349609375,29.784736842105268,0.008806947647726923,29.77,29.79,0.05423728813559322,-0.0001052631578947346,0,1,0
0,0.017051557753156876,0.0027772782895244363,0.009632749342848445,0.022017712783653588,0.01705154968066184,0.002777276974714044,0.00963274478254242,0.02201770236009696,1.1732373301475576e-05,1.9109143062751364e-06,6.627840860399872e-06,1.514935053805685e-05,1.1732373301475576e-05,1.9109143062751364e-06,6.627840860399872e-06,1.514935053805685e-05,-7.40044067796611,65.57262467877455,-148.65,182.99,0.2589308871267593,0.009948731935535594,0.23922409009596257,0.27496857398109,0.11733075439934001,0.01779456103942058,0.07815159643658899,0.14208732523518003,0.11770281682064769,0.15354476273152406,2.597581740815258e-07,0.4763677943919913,-1.1520358208711743,0.010566164426871433,-1.1671618915146473,-1.133043545858023,-0.17041127355506322,1.8009626778603023,-2.73590087890625,3.55072021484375,29.790000000000003,0.01154700538379227,29.77,29.81,0.08135593220338982,0.001857585139318846,0,1,0
0,0.024063150812237036,0.012069406912208144,0.00894469581835927,0.04678763966526387,0.02406313942033555,0.012069401198347329,0.00894469158378939,0.04678761751520604,1.655672005020202e-05,8.304390101556534e-06,6.154423656085595e-06,3.219236989337081e-05,1.655672005020202e-05,8.304390101556534e-06,6.154423656085595e-06,3.219236989337081e-05,0.8071088435374177,74.43418707547488,-146.85,192.32,0.26178891290661777,0.009711730010498331,0.24812552139484823,0.276788710662878,0.08055697629796428,0.033196866596994196,0.03957750731013802,0.14195786012602654,0.027057671120445864,0.11153533504502343,2.959670220015198e-08,0.4869296276036813,-1.1070877751234225,0.014273770522530642,-1.130411693539393,-1.0839823613694932,-0.30620092197919896,1.896356524280479,-2.79083251953125,3.59344482421875,29.814444444444437,0.008314794192830802,29.81,29.83,0.08163265306122448,0.0003302373581011281,0,1,0
0,0.008977238890463486,0.004637268343850507,0.0,0.019953552210186066,0.008958638608088428,0.004673090349218196,-0.00137610639750606,0.01995354276383787,6.164019950767643e-06,3.2153347628414926e-06,-9.468344086285532e-07,1.372909892511402e-05,6.164019950767643e-06,3.2153347628414926e-06,-9.468344086285532e-07,1.372909892511402e-05,-1.8697966101694812,146.32813229974442,-284.06,372.3,0.27063938673891214,0.0031676416533436866,0.263496616099969,0.2743182732353523,0.05927083351049422,0.008184622571659042,0.03932639559982591,0.06724975317413745,0.029473642281064277,0.058051210510804745,9.873960404860327e-08,0.1833750482350911,-1.0616262579300522,0.011285607523928175,-1.0814372682549092,-1.0444005750699359,0.6572444149045731,2.1598169500417788,-2.99224853515625,4.058837890625,29.822631578947362,0.016170833153408518,29.81,29.85,0.10847457627118644,-0.0007719298245614992,0,1,0
0,0.018694461066733097,0.003726838838423561,0.012384963440805145,0.027522140979566984,0.018694452216459878,0.0037268370740751924,0.01238495757755454,0.027522127950121197,1.2862777646470868e-05,2.564262170048821e-06,8.521509677656977e-06,1.8936688172571062e-05,1.2862777646470868e-05,2.564262170048821e-06,8.521509677656977e-06,1.8936688172571062e-05,2.054745762711864,51.04535170510707,-136.27,111.81,0.26608680780795707,0.0016982166880963343,0.2635216011953558,0.2708284870118531,0.016805961789454628,0.008351335237493436,0.007215907870186199,0.03544631612725194,0.0018624627063975007,0.005811431415088013,8.226845904513169e-08,0.024128457096200817,-1.0319603198338079,0.005996961577427041,-1.0428186431677062,-1.0232433200783135,-0.6362654650170648,1.3198180001762247,-2.89306640625,1.885986328125,29.821111111111108,0.01662958838566161,29.79,29.83,0.13559322033898305,-0.0003302373581011281,0,1,0
0,0.019697856643652905,0.0026949948215530513,0.015137177538761842,0.025457980406099465,0.019697847318355336,0.0026949935456970454,0.01513717037256666,0.02545796835386211,1.3553166855943161e-05,1.8542989297356204e-06,1.0415178494914085e-05,1.7516436559628233e-05,1.3553166855943161e-05,1.8542989297356204e-06,1.0415178494914085e-05,1.7516436559628233e-05,-0.8329152542372902,33.557631665937286,-80.51,52.1,0.2654059664958469,0.0009995176437244933,0.26346036239650183,0.26726114098310466,0.0027140792229331735,0.0017290709569787717,0.0007193606089801682,0.006468362973842431,1.2461254054516256e-07,5.60743816990102e-08,6.37345176981996e-08,2.3631930215484154e-07,-1.0184069085812322,0.0019793662817721826,-1.0225116195969208,-1.0160424094789908,0.08849198409996317,2.646455058552906,-3.72467041015625,4.99420166015625,29.841578947368422,0.014960705687950491,29.83,29.89,0.05423728813559322,0.002210526315789707,0,1,0
0,0.018858283334468623,0.0004996236601773596,0.01788939163671854,0.01926549868569689,0.018858274406639144,0.0004996234236470916,0.01788938316757878,0.01926548956508484,1.2975496028450507e-05,3.4376749481232146e-07,1.230884731217119e-05,1.3255681720799745e-05,1.2975496028450507e-05,3.4376749481232146e-07,1.230884731217119e-05,1.3255681720799745e-05,0.8078231292517004,12.910929663856253,-49.34,23.96,0.26648393592104297,0.0014861611328994384,0.2642260165752709,0.2686274857262694,0.0022775586415168655,0.0021254820417360583,0.0002335061629054296,0.005219695536665603,0.004080877534509381,0.012861836068698488,1.0519743472159337e-07,0.05567469217623067,-1.0156817249781254,0.00011500520717919624,-1.015951535176805,-1.0154724401167814,0.8114263378361023,2.0425672299074504,-2.28729248046875,4.27093505859375,29.90222222222223,0.009749960430435484,29.89,29.91,0.19047619047619047,0.0015892672858616795,0,1,0
0,0.01994887157396505,0.0007065125407211884,0.01788939163671854,0.022017712783653588,0.01994886212983271,0.0007065122062462341,0.01788938316757878,0.02201770236009696,1.3725878399914615e-05,4.861179834657817e-07,1.230884731217119e-05,1.514935053805685e-05,1.3725878399914615e-05,4.861179834657817e-07,1.230884731217119e-05,1.514935053805685e-05,0.398338983050847,21.756707384714108,-73.17,45.27,0.267685475961702,0.001080482931894319,0.26503907072408145,0.2705975070761135,0.002912649083000843,0.0013804466807684596,0.0009913148073311681,0.004997015297229077,2.946190628014344e-07,3.1649696289159117e-07,1.2871300903577465e-07,1.5112558050117686e-06,-1.0137856124162514,0.0012803762830305553,-1.0154055979338314,-1.011371591840182,0.21522988305489837,2.9805719178217784,-3.8818359375,5.3619384765625,29.939999999999998,0.013743685418725242,29.91,29.97,0.08135593220338982,0.0023735810113518587,0,1,0
0,0.02070669187888365,0.0004257843742431249,0.018577445161207715,0.022017712783653588,0.02070668207598645,0.00042578417266962053,0.018577436366331808,0.02201770236009696,1.4247298837944522e-05,2.9296216198374507e-07,1.2782264516485466e-05,1.514935053805685e-05,1.4247298837944522e-05,2.9296216198374507e-07,1.2782264516485466e-05,1.514935053805685e-05,-0.5379661016949158,12.08544287242216,-25.02,22.57,0.2683345333424613,0.0009324725267975406,0.26652639280298057,0.26980262214647305,0.00035690499380363813,0.0002332933894486289,9.275129898087944e-05,0.0008760998446622044,1.1604344482777958e-07,1.880062160260029e-08,7.390803527605044e-08,1.4690146870645349e-07,-1.0088125358647564,0.001073078742196032,-1.0110327122969867,-1.007732242993794,-0.5621254592024659,4.568699793840028,-6.86187744140625,7.29827880859375,29.978421052631585,0.009874559494364905,29.97,29.99,0.16271186440677965,0.0009824561403508562,0,1,0
0,0.018043852632012036,0.0011898394547632022,0.015825231063251018,0.020641605734675238,0.018043844089747837,0.0011898388914731342,0.01582522357131969,0.020641595962590898,1.2415124643751957e-05,8.186724552788495e-07,1.088859569922836e-05,1.4202516129428297e-05,1.2415124643751957e-05,8.186724552788495e-07,1.088859569922836e-05,1.4202516129428297e-05,-1.150612244897959,28.525607167087717,-53.03,68.31,0.2669828083466125,0.0012121058622710705,0.26534744601089305,0.2695028489059684,0.0009715019764817317,0.0016807221151738392,2.356167658833439e-05,0.00671228622667025,0.009512613279674925,0.02476942208192147,5.857294811239394e-08,0.09822472845616044,-1.0124463117890188,0.0036472740885119233,-1.0197070694679993,-1.0080410880509645,-0.4727181370737535,3.0905460601934687,-6.65740966796875,5.76019287109375,30.00111111111111,0.00993807990000062,29.99,30.01,0.16326530612244897,0.0003302373581011868,0,1,0
0,0.01904550878330914,0.0012638411205305204,0.016513284587740193,0.022017712783653588,0.019045499766844103,0.001263840522206817,0.01651327677007272,0.02201770236009696,1.3104317036427149e-05,8.695895140180995e-07,1.1362012903542639e-05,1.514935053805685e-05,1.3104317036427149e-05,8.695895140180995e-07,1.1362012903542639e-05,1.514935053805685e-05,-0.6298983050847443,22.025794454357154,-76.05,37.11,0.26830952957487786,0.002354326724064586,0.2644314228709043,0.27327459520016234,0.023888134785078313,0.010891283708018609,0.01088657016753631,0.04649638578331598,0.028479170665513375,0.05959301610272338,1.1822090473234681e-07,0.2247746571529171,-1.033244493825276,0.007705459150756561,-1.045938504390926,-1.0209146851799824,0.6356767034412317,4.322825113451369,-5.2886962890625,8.8897705078125,30.019473684210514,0.009986139979478881,30.01,30.03,0.18983050847457628,0.001578947368421019,0,1,0
0,0.03413303362702379,0.005143721806304792,0.016513284587740193,0.05091596081219893,0.03413301746786991,0.005143719371180125,0.01651327677007272,0.05091593670772422,2.3485331851860942e-05,3.5391525668284122e-06,1.1362012903542639e-05,3.5032873119256466e-05,2.3485331851860942e-05,3.5391525668284122e-06,1.1362012903542639e-05,3.5032873119256466e-05,-1.028745762711862,74.936833667575,-107.45,193.21,0.2592478091577973,0.0062550365730724596,0.2520513350605652,0.2715961830607908,0.02236794827985848,0.012044389275934632,0.0070112922215778304,0.04482127508917551,1.5755434087630053e-07,1.314097309246382e-07,6.257506396378787e-08,5.284727856436078e-07,-1.0563655254510254,0.004853103095131761,-1.0628366534223042,-1.047281803171277,0.02365609410753762,2.2507485925410715,-2.7740478515625,4.998779296875,30.021111111111097,0.009938079899998854,30.01,30.03,0.10847457627118644,0.0006604747162022562,0,1,0
0,0.03670086860897694,0.0006085547142595082,0.034402676224458736,0.037842943846904606,0.03670085123416679,0.0006085544261594422,0.0344026599376515,0.03784292593141665,2.5252138088627574e-05,4.187178195343182e-07,2.367086021571383e-05,2.6037946237285214e-05,2.5252138088627574e-05,4.187178195343182e-07,2.367086021571383e-05,2.6037946237285214e-05,4.030915254237288,16.997265907046703,-48.59,36.83,0.2490410660756076,0.0009378936223053212,0.2476637272372843,0.250910895779221,0.0027306060428672835,0.0015140146093417285,0.0008912932594011179,0.006192177406743193,0.0002389053955059757,0.0010124579340554409,6.091334885799382e-08,0.004534400250478389,-1.0637883023400476,0.0004626045213332118,-1.0643097302981692,-1.06278938204119,-0.14070884761384345,3.7761293878494655,-5.44586181640625,6.61468505859375,30.002631578947373,0.014811839241548818,29.97,30.03,0.18983050847457628,-0.0022807017543861594,0,1,0
0,0.03650428188769433,0.0019140425837208168,0.03371462269996956,0.042659318518328826,0.036504264605951506,0.001914041677580773,0.03371460673889847,0.04265929832268786,2.511687603025196e-05,1.3169624988060668e-06,2.3197443011399553e-05,2.935186666748515e-05,2.511687603025196e-05,1.3169624988060668e-06,2.3197443011399553e-05,2.935186666748515e-05,-0.7679591836734692,19.96428349735998,-38.75,70.23,0.2500826337488375,0.001877327939699055,0.24780593095432388,0.25300560047912507,0.003137614625919589,0.0031884685990753586,0.00029346427074618633,0.007984069838247452,0.004896857604401198,0.011998519721034407,6.853922675763291e-08,0.04521290463456884,-1.0609938457475192,0.0007759385659639798,-1.0625580142617939,-1.0602010377604532,-0.22059173205354374,2.307338450023197,-3.80096435546875,3.76129150390625,29.965555555555554,0.015713484026367387,29.95,29.99,0.16326530612244897,-0.001816305469556205,0,1,0
0,0.03399821232830633,0.00035706699326087965,0.033026569175480386,0.035090729748947905,0.03399819623297902,0.00035706682421934123,0.03302655354014544,0.03509071313640453,2.339256766993454e-05,2.4568097057270416e-07,2.2724025807085277e-05,2.4144277420028106e-05,2.339256766993454e-05,2.4568097057270416e-07,2.2724025807085277e-05,2.4144277420028106e-05,-0.7788135593220333,23.8268911664983,-57.72,97.04,0.2523522703880153,0.0013473628273086087,0.24930659725309842,0.2547010561289963,0.009414574939027379,0.001774863661133186,0.006259812094939587,0.011961347713563854,0.00872617041469879,0.025006079782010457,2.1471061295574856e-07,0.09064653313493196,-1.062503552695198,0.0014519405988684792,-1.065012723075027,-1.060438749218858,0.2940638036488229,2.4498803588292626,-2.71148681640625,5.511474609375,29.932222222222226,0.011331154474650391,29.91,29.95,0.08135593220338982,-0.0004953560371516923,0,1,0
0,0.033499313433802864,0.001332839415938322,0.029586301553034506,0.036466836797926255,0.033499297574662835,0.0013328387849496604,0.029586287546380288,0.03646681953391059,2.304929885222635e-05,9.170639894067153e-07,2.035693978551389e-05,2.5091111828656657e-05,2.304929885222635e-05,9.170639894067153e-07,2.035693978551389e-05,2.5091111828656657e-05,1.1295932203389816,9.635008404416386,-24.82,17.12,0.25030284976246014,0.0016051678229273328,0.24691417365938104,0.25210307721176756,0.008298816923363867,0.0020209343297269535,0.004265825432526121,0.011044188194189728,0.0036715601828411952,0.015575558112486013,7.445561725494265e-08,0.06975305672403384,-1.0664663387535067,0.0005240291994215811,-1.0670470254736444,-1.0653004887903215,0.7208414764025667,4.013105126500903,-5.48248291015625,8.95538330078125,29.933157894736844,0.011721609184905057,29.91,29.95,0.08135593220338982,0.0007017543859648973,0,1,0
0,0.03410978857552077,0.00995771015983921,0.002064160573467524,0.04747569318975305,0.034109772427371524,0.009957705445691252,0.00206415959625909,0.04747567071395907,2.3469338027390846e-05,6.851431084148331e-06,1.4202516129428298e-06,3.2665787097685084e-05,2.3469338027390846e-05,6.851431084148331e-06,1.4202516129428298e-06,3.2665787097685084e-05,0.5144745762711882,20.249371004548813,-66.37,31.92,0.25005094321170557,0.0010717653961309773,0.24868758210383804,0.25236468998647493,0.0018124978026795456,0.0010871117014943814,0.000522114269772383,0.003926178294339742,0.016616321226373527,0.06851045459406006,5.85582945328289e-08,0.2990921619765589,-1.0594736152706774,0.004275449521221304,-1.0654476055580446,-1.0516846997313907,-0.28408617474742087,3.621794736401891,-5.61981201171875,8.86383056640625,29.941111111111113,0.009938079899998854,29.93,29.95,0.16271186440677965,-0.0006604747162022562,0,1,0
0,0.017964281816254743,0.00294894197790546,0.012384963440805145,0.022705766308142764,0.017964273311660752,0.002948940581826584,0.01238495757755454,0.022705755558849988,1.2360375715361858e-05,2.029028000258401e-06,8.521509677656977e-06,1.5622767742371126e-05,1.2360375715361858e-05,2.029028000258401e-06,8.521509677656977e-06,1.5622767742371126e-05,-1.0293537414966094,122.13255290951132,-437.6,299.01,0.27132471288317583,0.0036210993526511696,0.2574222529650997,0.27384530160169385,0.039311238123598845,0.007774398381315726,0.01566005727889521,0.05011959845111631,0.029391366671264876,0.05792039533251465,3.140340159024646e-07,0.2459425731732352,-1.0401528170595016,0.006360796982192116,-1.0505807672384369,-1.029866905885403,-0.583450199097626,2.518118365917242,-5.73883056640625,3.6773681640625,29.975263157894734,0.016973174206943956,29.95,29.99,0.10884353741496598,0.0011228070175438355,0,1,0
0,0.017332395926417762,0.0025281762328395524,0.010320802867337619,0.021329659259164413,0.0173323877209692,0.00252817503595828,0.010320797981295449,0.02132964916134393,1.1925604813440584e-05,1.7395189204986473e-06,7.101258064714148e-06,1.4675933333742575e-05,1.1925604813440584e-05,1.7395189204986473e-06,7.101258064714148e-06,1.4675933333742575e-05,-3.4283389830508466,74.2895883273773,-184.27,182.42,0.27152524057162003,0.0012820944500845323,0.26971284406555657,0.27405097467189166,0.020807423782158482,0.00695724576130298,0.009956743882311435,0.03320330449113851,0.0035769700727790255,0.011595968129538895,9.02928770085687e-08,0.04919605248273412,-1.021419236474472,0.004145619722653717,-1.028815889884447,-1.0151965516678156,0.5696362085013962,2.827241936841221,-3.289794921875,5.9234619140625,29.985555555555564,0.008314794192830805,29.97,29.99,0.08135593220338982,-0.0004953560371516923,0,1,0
0,0.01761510002898299,0.0058813104060574505,0.002064160573467524,0.029586301553034506,0.01761509168969751,0.005881307621745899,0.00206415959625909,0.029586287546380288,1.2120120183424288e-05,4.046652521992842e-06,1.4202516129428298e-06,2.035693978551389e-05,1.2120120183424288e-05,4.046652521992842e-06,1.4202516129428298e-06,2.035693978551389e-05,22.86840677966102,75.89232734830975,-73.55,388.93,0.26890322222037844,0.0018100416999502933,0.2646390894864844,0.27298402629779606,0.004127287506080216,0.002178540809757755,0.00140382359049536,0.008869382594117221,0.003689956994655034,0.015653074804500188,4.788252330745202e-08,0.0701003288054754,-1.0097473950310398,0.0028647774052451423,-1.0145952967061338,-1.0050828316107039,0.6207127724924395,2.1488939578540287,-2.78167724609375,4.93927001953125,29.986842105263165,0.014886458551296585,29.97,30.01,0.08135593220338982,-0.00028070175438594646,0,1,0
0,0.010072729147623846,0.003117563747696717,0.003440267622445873,0.020641605734675238,0.010072724379023946,0.0031175622717894503,0.0034402659937651497,0.020641595962590898,6.930570229145051e-06,2.1450486934164934e-06,2.3670860215713828e-06,1.4202516129428297e-05,6.930570229145051e-06,2.1450486934164934e-06,2.3670860215713828e-06,1.4202516129428297e-05,-21.278983050847444,65.37996582416667,-198.55,106.49,0.27997026004655384,0.003262980974652384,0.2721805920931868,0.28509583315926035,0.0225879139136278,0.0073943655855679725,0.006809299467622264,0.03274986204130222,0.02073550738440833,0.06074986589500797,1.570039833698189e-07,0.26586718751977534,-0.9993807162922218,0.0033365113914547682,-1.0045498791360885,-0.9936587848086655,-0.6223214031412407,9.850664002633199,-14.813232421875,15.30303955078125,29.997777777777774,0.011811273125262102,29.97,30.01,0.05423728813559322,0.0010113519091848222,0,1,0
0,0.013789154307109567,0.00013614135557104025,0.013761070489783492,0.014449124014272667,0.013789147779091291,0.00013614129111942598,0.013761063975060599,0.01444911717381363,9.487667237482043e-06,9.367245083708851e-08,9.468344086285531e-06,9.941761290599808e-06,9.487667237482043e-06,9.367245083708851e-08,9.468344086285531e-06,9.941761290599808e-06,3.4670748299319727,14.099876499236444,-30.34,32.11,0.2801026256907253,0.0005372507839008068,0.2793612592463785,0.28107994591706686,0.00988924444645661,0.003059228912509956,0.005706730373175708,0.015121704142459136,0.0031876711038224584,0.008990856789866266,5.968751972673658e-07,0.029879377018900866,-0.9866983054020556,0.0037691792340758786,-0.9929286420376797,-0.9806449873220291,-0.6242941390196088,6.186574260569284,-13.67645263671875,7.01751708984375,29.99111111111112,0.012422599874999768,29.97,30.01,0.16326530612244897,-0.0015892672858617968,0,1,0
0,0.013728527417679267,0.00014605589312667927,0.013073016965294318,0.013761070489783492,0.013728520918362777,0.0001460558239813558,0.01307301077630757,0.013761063975060599,9.445952732027431e-06,1.0049417688688122e-07,8.994926881971256e-06,9.468344086285531e-06,9.445952732027431e-06,1.0049417688688122e-07,8.994926881971256e-06,9.468344086285531e-06,-3.335762711864408,22.702909333714942,-109.94,38.98,0.28195659942453005,0.0010163717184373967,0.280606660928728,0.2837763462359567,0.0037306095470214773,0.0018043518259374515,0.0012004472359506166,0.006336191627301295,0.0006056128119477339,0.0025687476406935287,4.3673112938569236e-08,0.011503886000997832,-0.975058257577988,0.00271392397605653,-0.9799851313304718,-0.9711284167084441,1.3494647762024077,1.404738260755898,-2.07672119140625,4.25872802734375,29.982631578947377,0.009647527778854196,29.97,29.99,0.13559322033898305,-0.001052631578947346,0,1,0
0,0.010559515314609342,0.0011081548351909937,0.008256642293870096,0.012384963440805145,0.010559510315556705,0.0011081543105718008,0.00825663838503636,0.01238495757755454,7.265504849884404e-06,7.62469118100887e-07,5.681006451771319e-06,8.521509677656977e-06,7.265504849884404e-06,7.62469118100887e-07,5.681006451771319e-06,8.521509677656977e-06,-3.2498983050847565,119.49055079153433,-322.28,256.8,0.2835036567849009,0.002336802882934692,0.28016757899977013,0.28828640232685654,0.0028412752921069184,0.0025826320123908016,0.0005695106225173004,0.007459334890587902,0.0047041540348207855,0.011129194768267629,6.58837302075499e-08,0.03717866263525414,-0.9687653676439533,0.0011364487399913405,-0.9708160063751547,-0.9670431130644904,-0.001286794560095408,1.4048954201358894,-2.26593017578125,2.98004150390625,29.98333333333334,0.009428090415820432,29.97,29.99,0.05423728813559322,0.00016511867905056406,0,1,0
0,0.01100885639182676,3.469446951953614e-17,0.011008856391826794,0.011008856391826794,0.01100885118004851,2.949029909160572e-17,0.01100885118004848,0.01100885118004848,7.574675269028409e-06,1.6093625997831706e-20,7.574675269028425e-06,7.574675269028425e-06,7.574675269028409e-06,1.6093625997831706e-20,7.574675269028425e-06,7.574675269028425e-06,7.224474576271183,23.79708696697477,-42.8,78.6,0.28663033819735295,0.0008113696070348815,0.28512077121858304,0.28833182102053634,0.006563360033160509,0.0010508365342012788,0.004271782232363159,0.00814641687596558,0.003641741539854862,0.009809336274534137,1.952869535248869e-07,0.04010605973686669,-0.964928729421635,0.0012988536719786418,-0.9668610905561561,-0.9625558530580063,0.13584676510642835,1.3267381502418767,-1.96533203125,3.094482421875,29.965789473684225,0.008153649149910179,29.95,29.97,0.18983050847457628,0.0004912280701754281,0,1,0
0,0.009913587516109327,0.0018013092663725118,0.002064160573467524,0.011008856391826794,0.009913582822849779,0.0018013084136023205,0.00206415959625909,0.01100885118004848,6.821072372364881e-06,1.2393960159198225e-06,1.4202516129428298e-06,7.574675269028425e-06,6.821072372364881e-06,1.2393960159198225e-06,1.4202516129428298e-06,7.574675269028425e-06,15.2052380952381,62.25355697111256,-69.46,291.38,0.28681017064957115,0.0019831810928774085,0.28205237358044283,0.2897566637014926,0.0016490268139708374,0.001006585954875306,0.0004727599501249497,0.003811623842228537,1.633174746078253e-07,1.965159602909231e-07,4.9970779937569265e-08,9.328451059022885e-07,-0.9591367750502775,0.0019225663897943358,-0.9622244829657627,-0.9559774786732288,-0.16511391765130662,1.5516760737261963,-2.4993896484375,3.26080322265625,29.96555555555556,0.008314794192830802,29.95,29.97,0.08163265306122448,-0.0003302373581011281,0,1,0
0,0.00890257009237013,0.0018774194671301583,0.003440267622445873,0.010320802867337619,0.008902565877743272,0.0018774185783281172,0.0034402659937651497,0.010320797981295449,6.1254389292908465e-06,1.291763858217026e-06,2.3670860215713828e-06,7.101258064714148e-06,6.1254389292908465e-06,1.291763858217026e-06,2.3670860215713828e-06,7.101258064714148e-06,-20.419796610169477,84.55683980969668,-270.86,202.57,0.28959334547253107,0.001502178630203457,0.28620521121752185,0.2927865525264704,0.0027574899424137444,0.0008763589738638895,0.0008951414668665266,0.004014575233218836,0.002668594827794699,0.009483733224072574,1.0120973002736289e-07,0.041245356221325635,-0.9530325681106283,0.0014320018533502273,-0.9556176837506585,-0.951002561552808,0.0440947283804879,2.81119036064799,-3.6224365234375,5.25360107421875,29.956666666666667,0.016329931618554172,29.93,29.97,0.08135593220338982,-0.0006604747162022562,0,1,0
0,0.011218061855353905,0.0007402736924495398,0.010320802867337619,0.012384963440805145,0.0112180565445342,0.0007402733419914855,0.010320797981295449,0.01238495757755454,7.718619689259093e-06,5.093474409088378e-07,7.101258064714148e-06,8.521509677656977e-06,7.718619689259093e-06,5.093474409088378e-07,7.101258064714148e-06,8.521509677656977e-06,3.724237288135595,16.555699802294516,-47.73,28.23,0.2894749135200369,0.0012933501878607699,0.28618053653539033,0.29161165718351645,0.000776412565532829,0.00046907544495437673,0.00021451990103426398,0.0017384677834615307,5.189470709323874e-07,1.3480385238060445e-06,7.867222670369933e-08,6.138650803468558e-06,-0.950750745991719,0.00035749664204167363,-0.9516582838409706,-0.9504071195376664,-0.5822207732472763,2.1944345490498733,-3.14178466796875,3.839111328125,29.951052631578957,0.0137246366425316,29.93,29.97,0.18983050847457628,-0.0008771929824561216,0,1,0
0,0.01368149967402625,0.004461635871193566,0.010320802867337619,0.03371462269996956,0.013681493196973522,0.0044616337589798855,0.010320797981295449,0.03371460673889847,9.413595157895441e-06,3.069841379530616e-06,7.101258064714148e-06,2.3197443011399553e-05,9.413595157895441e-06,3.069841379530616e-06,7.101258064714148e-06,2.3197443011399553e-05,2.205136054421771,14.344184953781514,-28.74,34.15,0.28998112910079393,0.0008700884037594821,0.2886739346038966,0.2917515941810419,0.005440673325879634,0.0021335303826738655,0.0006951105476029921,0.008389196774361781,0.007151996144025842,0.016113951459919045,1.4109346571644643e-07,0.048635331622141634,-0.9551482254838302,0.002319604910633497,-0.9594556547931251,-0.9518980817613873,-0.10887884324596774,2.5361916221286527,-3.69110107421875,4.53338623046875,29.945555555555554,0.008314794192830805,29.93,29.95,0.19047619047619047,0.00016511867905056406,0,1,0
0,0.019031466874646137,0.0058391532486185786,0.005504428195913397,0.037842943846904606,0.019031457864828703,0.00583915048426494,0.00550442559002424,0.03784292593141665,1.3094655460828906e-05,4.017646168698797e-06,3.7873376345142126e-06,2.6037946237285214e-05,1.3094655460828906e-05,4.017646168698797e-06,3.7873376345142126e-06,2.6037946237285214e-05,1.675491525423723,165.7652430039187,-472.48,297.24,0.287281770575057,0.0019869569586220986,0.28273748237028296,0.29078519252172297,0.009012380929489033,0.0029734444789244817,0.004538587969924448,0.013530578824737918,0.006352668585688663,0.026950582420706512,3.0743509932262825e-08,0.12069430603602074,-0.9671472959975901,0.004470292499912598,-0.9746339707582229,-0.9601152572847921,0.99624510734312,4.01105662163641,-4.6630859375,8.20770263671875,29.94157894736842,0.009874559494364905,29.93,29.95,0.08135593220338982,0.0009824561403508562,0,1,0
0,0.026541199806139885,0.001524102710090362,0.01788939163671854,0.028898248028545334,0.026541187241088192,0.001524101988554425,0.01788938316757878,0.02889823434762726,1.82617487799338e-05,1.048663248450731e-06,1.230884731217119e-05,1.9883522581199616e-05,1.82617487799338e-05,1.048663248450731e-06,1.230884731217119e-05,1.9883522581199616e-05,-5.491898305084751,44.247353809107054,-129.74,153.13,0.27856407780400466,0.0017072355216047666,0.2745190344331655,0.2815576492283197,0.00362365317462279,0.0018768165677157877,0.0013308317716148803,0.007817665671565483,0.005111924278278726,0.01469109522379546,3.9528532683186235e-08,0.05384988106465377,-0.9814324161663559,0.0033072583888680658,-0.9860993716635065,-0.975460729633302,0.8852436421933175,4.751808991717378,-6.829833984375,7.98492431640625,29.92777777777778,0.01133115447465039,29.91,29.95,0.10847457627118644,0.0003302373581011281,0,1,0
0,0.02710556435589668,0.00033628995041124887,0.026834087455077812,0.027522140979566984,0.027105551523665245,0.0003362897912059151,0.02683407475136817,0.027522127950121197,1.865006142982298e-05,2.31385266547218e-07,1.8463270968256787e-05,1.8936688172571062e-05,1.865006142982298e-05,2.31385266547218e-07,1.8463270968256787e-05,1.8936688172571062e-05,1.3653559322033906,18.07138497854561,-35.64,30.34,0.28044613969929566,0.0008408667703843107,0.27839577089695394,0.2819755731862933,0.00996661927699674,0.0017872791691331841,0.006062124582691508,0.012257066937293882,0.005078086459046997,0.014928338745432947,7.581582184279512e-08,0.05837004603539894,-0.9861794702752602,0.0010684700575293864,-0.9871887755695209,-0.9836630989189074,-1.9738682446349642,3.596957385878348,-7.56072998046875,3.36761474609375,29.971052631578942,0.02552495926943668,29.95,30.01,0.16271186440677965,0.004140350877193081,0,1,0
0,0.02737704125671551,0.0002806821086902004,0.026834087455077812,0.027522140979566984,0.027377028295962315,0.0002806819758105568,0.02683407475136817,0.027522127950121197,1.8836851891389158e-05,1.931241312887742e-07,1.8463270968256787e-05,1.8936688172571062e-05,1.8836851891389158e-05,1.931241312887742e-07,1.8463270968256787e-05,1.8936688172571062e-05,-0.5007142857142857,13.108316614111146,-29.39,18.54,0.2803720348093183,0.0016831735370867263,0.27796658868568225,0.2829081946085777,0.002413709975295728,0.0013928576499180954,0.0007367702752606223,0.005409932993862269,7.759432607467333e-05,0.0003184797476326205,6.184433376521525e-08,0.0013907185212708867,-0.9779384078196585,0.003305887162100243,-0.9831482209537419,-0.9724649748767871,0.6523615077470727,0.9818529022860745,-1.12152099609375,2.679443359375,30.032222222222224,0.019876159799997704,30.01,30.05,0.16326530612244897,0.0033023735810112816,0,1,0
