,net_acc_mean,net_acc_std,net_acc_min,net_acc_max,ACC_x_mean,ACC_x_std,ACC_x_min,ACC_x_max,ACC_y_mean,ACC_y_std,ACC_y_min,ACC_y_max,ACC_z_mean,ACC_z_std,ACC_z_min,ACC_z_max,BVP_mean,BVP_std,BVP_min,BVP_max,EDA_mean,EDA_std,EDA_min,EDA_max,EDA_phasic_mean,EDA_phasic_std,EDA_phasic_min,EDA_phasic_max,EDA_smna_mean,EDA_smna_std,EDA_smna_min,EDA_smna_max,EDA_tonic_mean,EDA_tonic_std,EDA_tonic_min,EDA_tonic_max,Resp_mean,Resp_std,Resp_min,Resp_max,TEMP_mean,TEMP_std,TEMP_min,TEMP_max,BVP_peak_freq,TEMP_slope,0,1,2
0,0.04166907932430042,0.004408759688314466,0.026834087455077812,0.06192481720402572,0.041669059597455475,0.004408757601133265,0.02683407475136817,0.0619247878877727,2.8670529745059903e-05,3.0334597699864727e-06,1.8463270968256787e-05,4.260754838828489e-05,2.8670529745059903e-05,3.0334597699864727e-06,1.8463270968256787e-05,4.260754838828489e-05,2.737050847457627,66.9914410453783,-145.68,145.64,0.2913757825345742,0.001344503360392676,0.28878832452075937,0.2936607410383334,0.0057132087201896,0.003516265005472754,0.0016278026441032632,0.013323977966005396,5.350544954579178e-07,6.404886747981837e-07,1.0367950586953611e-07,2.1069483909716413e-06,-0.7476837987350909,0.0014255112077299795,-0.7506127083352847,-0.7461024031691742,1.0406844482043127,2.6712427214984182,-2.34832763671875,6.47735595703125,29.383333333333333,0.01333333333333305,29.37,29.41,0.16271186440677965,-0.0009907120743033846,0,1,0
0,0.042518899431698405,0.004792537231934645,0.020641605734675238,0.06467703130198241,0.042518879302534195,0.004792534963066679,0.020641595962590898,0.06467700068278481,2.9255250911502645e-05,3.2975190114737644e-06,1.4202516129428297e-05,4.4501217205542e-05,2.9255250911502645e-05,3.2975190114737644e-06,1.4202516129428297e-05,4.4501217205542e-05,-2.127118644067797,37.225760282994095,-153.86,65.2,0.2898378093173366,0.001376753825330355,0.2862845159633334,0.2930370336538965,0.0005843405186402402,0.00038183817588516343,0.00015248243982717057,0.0014366025015178233,1.250801835628568e-06,1.409933097482359e-06,2.398013079253636e-07,5.120050117499511e-06,-0.747591310890228,0.001313786646968531,-0.7502611929425527,-0.7461002161353003,-0.6299896808179377,1.8823112949001035,-4.2236328125,3.0548095703125,29.36157894736843,0.009874559494364903,29.35,29.37,0.13559322033898305,-0.00014035087719297944,0,1,0
0,0.025879237665990776,0.009778237803967738,0.006880535244891746,0.0516040143366881,0.025879225414323158,0.009778233174785019,0.006880531987530299,0.05160398990647725,1.780628382757575e-05,6.727944614063831e-06,4.7341720431427655e-06,3.550629032357074e-05,1.780628382757575e-05,6.727944614063831e-06,4.7341720431427655e-06,3.550629032357074e-05,0.8427551020408193,42.46058118601663,-98.57,121.32,0.28842709944423794,0.004573305741638197,0.28189705774049856,0.2956447563001953,0.00722810228387699,0.004709544561567042,0.00013462407482629448,0.013496255958340666,0.009170807358757182,0.022254937827417918,1.6325624480062473e-07,0.08488944302772192,-0.7553092808882216,0.0030205519151274185,-0.7605016803505977,-0.7506981619606501,-0.32974508205063585,3.350390203374275,-5.029296875,6.14776611328125,29.361111111111104,0.016629588385663086,29.33,29.37,0.05442176870748299,-0.001981424148606945,0,1,0
0,0.03503029261504002,0.007453572794472466,0.011008856391826794,0.0460995861407747,0.035030276031108656,0.007453569265825381,0.01100885118004848,0.046099564316453005,2.4102693476405922e-05,5.128452175478429e-06,7.574675269028425e-06,3.1718952689056526e-05,2.4102693476405922e-05,5.128452175478429e-06,7.574675269028425e-06,3.1718952689056526e-05,2.184067796610169,43.86583561225643,-90.8,131.65,0.28052853474155226,0.005627511917319724,0.27347185844032135,0.28963687906822855,0.004204427709441375,0.0024250351889866712,0.0014093775127141963,0.009464438902902545,0.0033904342914891097,0.010381190488557554,5.0369529394633794e-08,0.041993434117143666,-0.7661917129245014,0.0027792198151096034,-0.7700526122587558,-0.7611494781320025,-0.7530638361095495,5.46324519737032,-7.635498046875,9.04693603515625,29.37421052631579,0.008153649149910179,29.37,29.39,0.13559322033898305,-7.017543859648972e-05,0,1,0
0,0.034791169030802996,0.009601964427735145,0.012384963440805145,0.0626128707285149,0.03479115256007667,0.009601959882003222,0.01238495757755454,0.06261284108652573,2.3938163807265417e-05,6.606659211110579e-06,8.521509677656977e-06,4.308096559259917e-05,2.3938163807265417e-05,6.606659211110579e-06,8.521509677656977e-06,4.308096559259917e-05,2.0753220338983103,60.23769673789103,-136.66,137.9,0.28736775757470157,0.008129113357596248,0.2793526379069496,0.3028619665871306,0.017321613874673805,0.011385024281325503,0.004837596184484847,0.03533146604383495,0.021606683172274474,0.04778431164190559,1.609898045984437e-07,0.1581255740554014,-0.7691977054075232,0.00162891104086178,-0.770627142630165,-0.7654015099274613,1.436542318061831,2.7418493283361483,-2.16827392578125,7.89031982421875,29.36555555555556,0.008314794192830804,29.35,29.37,0.16271186440677965,-0.0008255933952528204,0,1,0
0,0.03832644091816738,0.001248014670907926,0.035090729748947905,0.04059515794486131,0.03832642277378363,0.0012480140800767278,0.03509071313640453,0.04059513872642877,2.6370617786262797e-05,8.587000798856127e-07,2.4144277420028106e-05,2.7931615054542318e-05,2.6370617786262797e-05,8.587000798856127e-07,2.4144277420028106e-05,2.7931615054542318e-05,-2.1982033898305064,37.78412611486095,-56.31,85.55,0.29309221282847314,0.002667693455333106,0.2882481161087879,0.29655300191950845,0.015173699782733413,0.006529334854787749,0.009491358657906042,0.02995225708189593,0.004368174076860661,0.013557809532672584,1.3391611269897297e-07,0.055874584158977975,-0.7549587116633331,0.006244881647994211,-0.7645705644480251,-0.744338665539889,0.20471482951351194,3.538113726547322,-4.19769287109375,7.867431640625,29.379473684210527,0.016375104406424965,29.35,29.39,0.13559322033898305,-0.0001052631578947346,0,1,0
0,0.03162705894539692,0.005416202000360862,0.021329659259164413,0.03990710442037213,0.03162704397261374,0.005416199436239471,0.02132964916134393,0.03990708552767574,2.1761088772459622e-05,3.726633347188933e-06,1.4675933333742575e-05,2.745819785022804e-05,2.1761088772459622e-05,3.726633347188933e-06,1.4675933333742575e-05,2.745819785022804e-05,-3.6386394557823105,36.12550151033767,-79.6,107.41,0.30013470070810677,0.0016319036818820993,0.29780173898948964,0.3030244746526356,0.005041070835126223,0.0025871522030970194,0.001631480061568694,0.009528793907634812,5.420506221718479e-06,1.511479154955672e-05,1.1429894738318458e-07,6.600798746378422e-05,-0.7343168838545344,0.004898502852011271,-0.7431321186205258,-0.7273882737448254,-0.3861122036690156,2.4410210519097726,-3.8299560546875,4.22515869140625,29.39444444444444,0.008314794192830802,29.39,29.41,0.13605442176870747,0.0,0,1,0
0,0.027924675694574255,0.0005608956979909111,0.023393819832631935,0.028210194504056162,0.027924662474561667,0.000560895432453426,0.02339380875760302,0.02821018114887423,1.921365333972093e-05,3.859258964655439e-07,1.6096184946685404e-05,1.941010537688534e-05,1.921365333972093e-05,3.859258964655439e-07,1.6096184946685404e-05,1.941010537688534e-05,3.304169491525422,18.71641874801196,-40.89,29.11,0.30125041904321753,0.0011453039842828565,0.2995421984249847,0.30312048160721705,0.0006107256993238004,0.00038000523969928054,0.00017257460812613077,0.0014412757159914143,1.5102021372412094e-07,3.6474404906969855e-08,1.1134107117533043e-07,2.5295203693589605e-07,-0.7256151925391668,0.0005323455110115688,-0.7269170739924282,-0.7250483495993636,0.30749087521573454,2.5933108198017845,-3.289794921875,5.7647705078125,29.37777777777777,0.01781246615764562,29.35,29.41,0.10847457627118644,0.0026625386996903455,0,1,0
0,0.024351515954556056,0.005904594492558589,0.007568588769380921,0.05298012138566645,0.024351504426137642,0.005904591697223957,0.00756858518628333,0.05298009630398331,1.675513051485258e-05,4.062673204605527e-06,5.2075892474570424e-06,3.64531247321993e-05,1.675513051485258e-05,4.062673204605527e-06,5.2075892474570424e-06,3.64531247321993e-05,-1.9349152542372896,32.788933952456894,-75.04,75.15,0.3013224979518789,0.002404290739352729,0.29698028684605865,0.3049971484490643,0.004104010767996151,0.003461703795498825,7.220989995525737e-05,0.00843749907881101,0.005810928081402361,0.020631424151962854,2.5867988183783663e-07,0.09155701737290318,-0.7299811462044836,0.002285181985820387,-0.7338382848133685,-0.7264888915317624,-0.8601579121857068,3.7303262231043037,-6.23321533203125,6.146240234375,29.409999999999997,0.012977713690460727,29.39,29.43,0.10847457627118644,0.0011228070175438355,0,1,0
0,0.02613199202192554,0.0008242173774443317,0.023393819832631935,0.028210194504056162,0.02613197965059982,0.0008242169872459224,0.02339380875760302,0.02821018114887423,1.798019218834425e-05,5.671051345411435e-07,1.6096184946685404e-05,1.941010537688534e-05,1.798019218834425e-05,5.671051345411435e-07,1.6096184946685404e-05,1.941010537688534e-05,1.162925170068027,20.31679706902789,-43.95,43.7,0.29973837555035243,0.001789810473436808,0.2963229999483206,0.30250523961591397,0.007083084510213847,0.0018010162188835256,0.004558982111376195,0.009928495999067005,0.0040934774573314035,0.01687070062439162,9.521353616648298e-08,0.07365315736133105,-0.737295387293101,0.0017508342719954586,-0.7400232052621809,-0.7342552650068482,2.2104935373916814,2.898122218523321,-3.39508056640625,6.781005859375,29.410000000000007,0.01333333333333305,29.39,29.43,0.13605442176870747,0.0013209494324045125,0,1,0
0,0.01879743506359543,0.003072865306489687,0.016513284587740193,0.025457980406099465,0.018797426164572553,0.0030728638517434122,0.01651327677007272,0.02545796835386211,1.2933629200858024e-05,2.114293802524614e-06,1.1362012903542639e-05,1.7516436559628233e-05,1.2933629200858024e-05,2.114293802524614e-06,1.1362012903542639e-05,1.7516436559628233e-05,0.5634915254237273,13.55292304499245,-29.41,26.51,0.29227622936922293,0.0018451702154871148,0.2905648017731495,0.298349952667053,0.0016761188463667853,0.0010821375142481336,0.0004397149066672586,0.004056443125388021,2.0883833370717513e-07,7.505978745305034e-08,8.751481944679895e-08,3.257161486150406e-07,-0.7429937576535897,0.0016675990576137914,-0.7458393459765382,-0.7403161822709009,-2.560303643087004,2.339626106230267,-6.91070556640625,0.25482177734375,29.418421052631587,0.009874559494364905,29.41,29.43,0.13559322033898305,-0.0009824561403508562,0,1,0
0,0.01854955109940413,0.0008535461368287926,0.017201338112229368,0.024081873357121114,0.018549542317733696,0.0008535457327456541,0.01720132996882575,0.02408186195635605,1.276307192712141e-05,5.872848716976456e-07,1.1835430107856916e-05,1.656960215099968e-05,1.276307192712141e-05,5.872848716976456e-07,1.1835430107856916e-05,1.656960215099968e-05,-1.348677966101695,15.778899747297885,-43.03,33.4,0.2879046060223856,0.0014984549178326326,0.2845493326808916,0.29046958040055343,0.00023746898142032897,5.869350584715569e-05,0.0001466616331246733,0.00038804898917979444,9.082247487526062e-05,0.00025590755050713124,1.606694763245549e-07,0.0008725970660110422,-0.7496553660402963,0.002200951817808966,-0.7533415526961585,-0.7461949160414334,1.0020919738258223,2.2331751163333062,-1.6204833984375,5.92041015625,29.393333333333324,0.007453559924999139,29.39,29.41,0.13559322033898305,-0.000928792569659423,0,1,0
0,0.034168644413408,0.005889676379786722,0.015825231063251018,0.053668174910155624,0.03416862823739532,0.0058896735915145645,0.01582522357131969,0.05366814950273634,2.3509833955742992e-05,4.052408754252854e-06,1.088859569922836e-05,3.6926541936513574e-05,2.3509833955742992e-05,4.052408754252854e-06,1.088859569922836e-05,3.6926541936513574e-05,-2.871796610169491,44.592408943857926,-95.43,123.7,0.28625561769623087,0.0040927064359239755,0.2767068657201176,0.29444382375752975,0.004659086947447952,0.003702807227490147,7.278193245440116e-05,0.009119989652535243,0.005522733247790331,0.022673005582889313,1.1604984058184026e-07,0.09900530211840737,-0.7570705930777415,0.0018629382145468876,-0.7597979898047739,-0.7537796933468369,-0.5550037730823864,3.3888351143092454,-4.3121337890625,5.58013916015625,29.40444444444445,0.008958064164775976,29.39,29.41,0.05423728813559322,2.0639834881320507e-05,0,1,0
0,0.03268956336756732,0.000741522693293586,0.031650462126502035,0.034402676224458736,0.032689547891776624,0.0007415223422442361,0.03165044714263938,0.0344026599376515,2.2492147992727283e-05,5.10206819527985e-07,2.177719139845672e-05,2.367086021571383e-05,2.2492147992727283e-05,5.10206819527985e-07,2.177719139845672e-05,2.367086021571383e-05,5.612959183673471,17.536326739911818,-36.06,31.14,0.2842675023346401,0.0010266581975442316,0.28275818543337505,0.28563661563573606,0.0038067501064019214,0.0013056304252141997,0.0015441939030521475,0.005395220860845158,0.0015187987110981203,0.00643416764148777,9.878427954107538e-08,0.028816646488784375,-0.7604913388952727,0.0003264572616962887,-0.7608653032630387,-0.7597963599092644,1.433902237766473,2.7864368125834065,-3.53240966796875,5.96160888671875,29.40157894736842,0.009874559494364905,29.39,29.41,0.13605442176870747,-0.0009824561403508562,0,1,0
0,0.02785686972121032,0.0027082629845716186,0.024081873357121114,0.032338515650991204,0.027856856533298384,0.0027082617024342423,0.02408186195635605,0.03233850034139241,1.916699924494017e-05,1.8634281274202064e-06,1.656960215099968e-05,2.2250608602771e-05,1.916699924494017e-05,1.8634281274202064e-06,1.656960215099968e-05,2.2250608602771e-05,-0.9849491525423733,15.443230382871054,-37.86,24.55,0.2828464654546312,0.0015263597232161301,0.2799925673436816,0.28574646301813134,0.0005817444314648434,0.00036046048317170447,0.0001650620438612237,0.0013669271644959195,2.6690756822316456e-07,1.5144709122501447e-07,8.481999384107874e-08,5.032693124410598e-07,-0.7578591752457945,0.0010303913388457068,-0.7596050074813351,-0.756347899599698,0.06926107806076442,3.396752824338678,-3.77044677734375,6.90765380859375,29.414444444444452,0.008314794192830804,29.41,29.43,0.13559322033898305,0.0008255933952528204,0,1,0
0,0.02553755122185664,0.00022003969075596553,0.025457980406099465,0.026146033930588636,0.02553753913194925,0.00022003958658546415,0.02545796835386211,0.02614602155261514,1.7571185488018342e-05,1.5139894140242407e-07,1.7516436559628233e-05,1.7989853763942512e-05,1.7571185488018342e-05,1.5139894140242407e-07,1.7516436559628233e-05,1.7989853763942512e-05,-1.5781355932203398,14.794792221013797,-33.25,26.44,0.283845856480249,0.0013333420348706254,0.2809003607362245,0.2856880412850623,8.883100989254249e-05,5.90975787792403e-05,2.5585150785178604e-05,0.00024437295902800466,0.00014200896241450193,0.0005997614995313378,1.7812319855745919e-07,0.002686578895333524,-0.7569871429300477,0.0010156247933941788,-0.7592917666731139,-0.7560809941991024,-0.6281949746105866,2.853454675549979,-4.19769287109375,4.51507568359375,29.422631578947374,0.009647527778854196,29.41,29.43,0.10847457627118644,-7.017543859648972e-05,0,1,0
0,0.025797358158043484,0.0010595970590637546,0.021329659259164413,0.027522140979566984,0.0257973459451389,0.0010595965574326336,0.02132964916134393,0.027522127950121197,1.774994639689137e-05,7.290588007292226e-07,1.4675933333742575e-05,1.8936688172571062e-05,1.774994639689137e-05,7.290588007292226e-07,1.4675933333742575e-05,1.8936688172571062e-05,0.6780338983050845,14.7032724893867,-38.08,24.4,0.28195184253994277,0.0009086957223798127,0.27993830401872427,0.2832278280784974,0.0034597735867058373,0.0023983024640501925,0.0002593648038105112,0.009413628956143873,0.013528945986667087,0.03324042045998771,1.186467933888928e-06,0.13413190467544986,-0.7637828399981221,0.002474272048520744,-0.7676719562028377,-0.7597258888321466,-0.47445933418617164,2.171975396497514,-3.10211181640625,4.40216064453125,29.413333333333338,0.01527525231651914,29.39,29.43,0.13559322033898305,0.0022497420020639357,0,1,0
0,0.02486822024225158,0.006671409176277764,0.011008856391826794,0.04816374671424223,0.02486820846921667,0.006671406017920122,0.01100885118004848,0.0481637239127121,1.7110650384501708e-05,4.590282250810154e-06,7.574675269028425e-06,3.313920430199936e-05,1.7110650384501708e-05,4.590282250810154e-06,7.574675269028425e-06,3.313920430199936e-05,-6.0642176870748346,57.73375788235092,-136.38,154.81,0.2833529157710178,0.004719431559627661,0.27408258933099583,0.2901793293620999,0.011850484920251314,0.004921512221712102,0.004265473804204467,0.018818122920523928,2.3303627021935207e-07,3.6644552336474696e-07,5.88940490264811e-08,1.7022338030248108e-06,-0.7692062719585407,0.0006150113896873762,-0.7699037222684698,-0.7680394380096054,0.8519679816194283,2.686239662023474,-2.99224853515625,4.51202392578125,29.442631578947367,0.016170833153407248,29.43,29.47,0.08163265306122448,7.017543859648972e-05,0,1,0
0,0.02463418843120084,0.003209885996453924,0.01788939163671854,0.034402676224458736,0.02463417676896051,0.0032098844768397483,0.01788938316757878,0.0344026599376515,1.6949624124530876e-05,2.2085712819172844e-06,1.230884731217119e-05,2.367086021571383e-05,1.6949624124530876e-05,2.2085712819172844e-06,1.230884731217119e-05,2.367086021571383e-05,6.709423728813553,42.169004819470445,-103.07,92.12,0.2825417442945852,0.003706453583289407,0.27587252182382715,0.2893389855142582,0.003713173425518228,0.0013451178487254318,0.0026299698116775128,0.008082447900576991,0.006029163596268194,0.013056402339071002,3.654215817300299e-07,0.04130798361452637,-0.762464357480908,0.0033825622821716792,-0.7676233174519851,-0.7567586399851297,-0.06080364685342654,2.6648368586990303,-4.11834716796875,4.64019775390625,29.438888888888886,0.009938079899998854,29.43,29.45,0.10847457627118644,-0.0009907120743033846,0,1,0
0,0.020934493383613126,0.0006696350261098759,0.01926549868569689,0.022017712783653588,0.02093448347287093,0.0006696347090933594,0.01926548956508484,0.02201770236009696,1.4404038317751271e-05,4.6074430358774094e-07,1.3255681720799745e-05,1.514935053805685e-05,1.4404038317751271e-05,4.6074430358774094e-07,1.3255681720799745e-05,1.514935053805685e-05,-1.5749491525423733,17.78315603476325,-30.39,63.77,0.2898598136043292,0.0011733226530242981,0.28790721135088376,0.2923662628835745,0.0051760979844594724,0.0024507801153897746,0.0017626933670061556,0.00887325516008813,2.9560870882686415e-07,1.6308686534542157e-07,1.739403649031468e-07,8.280266973470507e-07,-0.7520495296250661,0.0020090041344220546,-0.7560979310717423,-0.7499017607913513,0.5091814827630508,3.0242744770298735,-3.35540771484375,6.26678466796875,29.414444444444452,0.008314794192830804,29.41,29.43,0.13559322033898305,0.0008255933952528204,0,1,0
0,0.022752572670352942,0.0005987556499218973,0.021329659259164413,0.024081873357121114,0.022752561898901208,0.0005987553664608756,0.02132964916134393,0.02408186195635605,1.5654972994365267e-05,4.1197554516394815e-07,1.4675933333742575e-05,1.656960215099968e-05,1.5654972994365267e-05,4.1197554516394815e-07,1.4675933333742575e-05,1.656960215099968e-05,0.8801016949152551,18.1604494173604,-40.58,42.59,0.28865163101838315,0.0021105769259502144,0.2852238572368547,0.2927035219846266,0.00550855797672709,0.0043258319706438895,0.0007387446626653995,0.011652415348490361,0.007066148199862083,0.020660294522826587,1.1811922365212446e-07,0.07209890211420342,-0.753835364058292,0.0029331020211625356,-0.7593331463809324,-0.7500480788535258,-0.31904452491930635,2.428230994909319,-4.02984619140625,3.997802734375,29.413157894736848,0.009761703679468955,29.39,29.43,0.13559322033898305,-0.000526315789473673,0,1,0
0,0.030985811783117947,0.006955214383119409,0.020641605734675238,0.04747569318975305,0.030985797113911973,0.006955211090403602,0.020641595962590898,0.04747567071395907,2.1319876820139522e-05,4.7855552387547496e-06,1.4202516129428297e-05,3.2665787097685084e-05,2.1319876820139522e-05,4.7855552387547496e-06,1.4202516129428297e-05,3.2665787097685084e-05,2.481292517006801,47.05660794607515,-101.88,132.43,0.282800758548651,0.0062314081476569924,0.2678097309474245,0.2886048719782805,0.008653860774072788,0.004149096850115283,0.0032803287961154417,0.0150020256999053,0.008060209706063939,0.03322993132304573,4.831051723941382e-08,0.14507072637542173,-0.7659805714232537,0.003389836773730268,-0.770952701755017,-0.7600749489880074,0.15014288738998527,3.1893024815596838,-4.034423828125,6.74285888671875,29.398888888888887,0.009938079899998854,29.39,29.41,0.13605442176870747,-0.0006604747162022562,0,1,0
0,0.03094846157111106,0.0003145906640910078,0.030274355077523685,0.032338515650991204,0.030948446919587345,0.00031459051515847996,0.03027434074513332,0.03233850034139241,2.1294177899460354e-05,2.164550102521563e-07,2.083035698982817e-05,2.2250608602771e-05,2.1294177899460354e-05,2.164550102521563e-07,2.083035698982817e-05,2.2250608602771e-05,-1.1700000000000035,30.162655842243517,-77.22,38.67,0.2820291787719666,0.0008988390312620177,0.28025842695785325,0.2839222645119109,0.01158436726498215,0.001438546833749894,0.00940092797917254,0.014047052762152084,0.007797504441736332,0.01591044718666186,1.7212412732614535e-06,0.06325458860120767,-0.7720245410761027,0.0005005761332561585,-0.7725824808756463,-0.7709339260446239,-0.6904090900279156,2.6979294717805393,-4.05426025390625,4.65850830078125,29.381578947368414,0.009874559494364905,29.37,29.39,0.13559322033898305,0.00014035087719297944,0,1,0
0,0.030293077622407745,0.00011194453674899979,0.030274355077523685,0.03096240860201286,0.030293063281153793,0.00011194448375256727,0.03027434074513332,0.03096239394388635,2.0843239090625875e-05,7.70237601287105e-08,2.083035698982817e-05,2.1303774194142445e-05,2.0843239090625875e-05,7.70237601287105e-08,2.083035698982817e-05,2.1303774194142445e-05,-1.865491525423729,19.967985572141483,-49.11,28.86,0.2801590855515094,0.0013086457698306914,0.27778137659439894,0.28267831799977355,0.004364149299388147,0.0024665606351445906,0.001323394431535856,0.009257497376090442,2.7065825920769004e-07,1.3510869744991786e-07,1.6269035600646742e-07,7.315265256324643e-07,-0.7678015955757451,0.001744633591765764,-0.7706426790714049,-0.7650656086949954,0.07751398562941166,2.0692529709933423,-2.41851806640625,4.10919189453125,29.381111111111107,0.01662958838566161,29.35,29.39,0.10847457627118644,0.0003302373581011281,0,1,0
0,0.030213917943615862,0.00019475968741070567,0.029586301553034506,0.030274355077523685,0.030213903639837465,0.00019475959520818387,0.029586287546380288,0.03027434074513332,2.0788773046205992e-05,1.3400496247083632e-07,2.035693978551389e-05,2.083035698982817e-05,2.0788773046205992e-05,1.3400496247083632e-07,2.035693978551389e-05,2.083035698982817e-05,0.9817966101694907,17.671776804166004,-45.33,22.08,0.27997454416861506,0.0007311799894286565,0.27905443658984996,0.28175464213630136,0.0004750809744433965,0.00031108850758282565,0.00012326737589502337,0.0011684956571597048,1.562539425891473e-07,4.719092816666557e-08,1.215003019002306e-07,3.0202921883978884e-07,-0.7640672693673348,0.00031915030857758257,-0.7648160912600496,-0.763717699418797,-0.061284578763521634,2.5712871538723645,-3.77044677734375,4.18243408203125,29.37736842105263,0.009647527778854194,29.37,29.39,0.13559322033898305,0.00035087719298244863,0,1,0
0,0.029586301553034537,3.122502256758253e-17,0.029586301553034506,0.029586301553034506,0.029586287546380263,2.42861286636753e-17,0.029586287546380288,0.029586287546380288,2.0356939785513864e-05,2.710505431213761e-20,2.035693978551389e-05,2.035693978551389e-05,2.0356939785513864e-05,2.710505431213761e-20,2.035693978551389e-05,2.035693978551389e-05,-0.8541156462585031,19.018188118744625,-48.22,25.11,0.27823513653595744,0.0007584946406994443,0.2768631475367335,0.279336729117658,0.0005219454197936011,0.0006463851168442411,3.553918366999101e-05,0.0017145514361239364,0.0010653050903953187,0.0023819793491589593,1.464829328906396e-07,0.00755780475701873,-0.7663804888616453,0.0010899196530536283,-0.7681389400685421,-0.7646522611388741,0.8451064230490559,2.5711609518099037,-2.9144287109375,4.42352294921875,29.375555555555554,0.008958064164775974,29.37,29.39,0.13605442176870747,-0.0006811145510835768,0,1,0
0,0.029492688828614198,0.00023589663584084385,0.028898248028545334,0.029586301553034506,0.02949267486627784,0.0002358965241633978,0.02889823434762726,0.029586287546380288,2.0292529281525558e-05,1.6230935802534712e-07,1.9883522581199616e-05,2.035693978551389e-05,2.0292529281525558e-05,1.6230935802534712e-07,1.9883522581199616e-05,2.035693978551389e-05,1.1966779661016955,16.469377638865055,-38.28,19.86,0.2776820930755606,0.0011254947219983557,0.27560157810769764,0.27961317240812256,0.0008091862368677182,0.0004381435742685376,0.0002529238202540997,0.0016332845906889602,4.5606093636985824e-07,2.765121065036031e-07,1.9937771156015166e-07,1.1297862555319227e-06,-0.7690150166696555,0.00028036737065549545,-0.7692736568918929,-0.7683149003040918,0.19541665555674062,2.415675748900741,-3.21044921875,4.5928955078125,29.394444444444446,0.014229164972072694,29.37,29.41,0.10847457627118644,0.0025180598555211023,0,1,0
0,0.02953981145002851,0.00017270306757452065,0.028898248028545334,0.029586301553034506,0.02953979746538344,0.00017270298581397565,0.02889823434762726,0.029586287546380288,2.0324952136573713e-05,1.1882884182350484e-07,1.9883522581199616e-05,2.035693978551389e-05,2.0324952136573713e-05,1.1882884182350484e-07,1.9883522581199616e-05,2.035693978551389e-05,-1.1248135593220336,18.439296446443286,-43.38,23.07,0.2773627859511656,0.0008981177090501727,0.27520519715406716,0.2789342217597925,9.099215953752037e-05,5.9434398329508945e-05,2.3745577820685956e-05,0.0002234030071092424,1.6545359515240283e-07,2.2396300335339213e-08,1.4084434492701945e-07,2.1508019080974591e-07,-0.7680153890564047,0.0005360300720986925,-0.7689153827483781,-0.7672504547333019,-0.016885951494164858,2.429243987975058,-3.27606201171875,4.559326171875,29.397368421052622,0.009647527778854192,29.39,29.41,0.10847457627118644,-7.017543859648972e-05,0,1,0
0,0.02959098218925551,0.0008474407891465531,0.028898248028545334,0.034402676224458736,0.0295909681803854,0.0008474403879537885,0.02889823434762726,0.0344026599376515,2.036016031071333e-05,5.830840696841128e-07,1.9883522581199616e-05,2.367086021571383e-05,2.036016031071333e-05,5.830840696841128e-07,1.9883522581199616e-05,2.367086021571383e-05,0.6715986394557821,18.149095660519613,-44.75,23.37,0.27736794489793276,0.0007322703418339368,0.27580379236289143,0.27853747322444433,0.00018251267191545355,0.00027703362163839456,5.816481514085582e-06,0.000735474835882623,0.00044394985481289756,0.0018257558926614002,2.0099068330666197e-07,0.007971732241624728,-0.7679141376432921,0.0007557959877853875,-0.7695684837099133,-0.7671970334420353,2.53261963723611,4.748739408686054,-3.93218994140625,9.75799560546875,29.410000000000007,0.01333333333333305,29.39,29.43,0.13605442176870747,0.0013209494324045125,0,1,0
0,0.026586013735364004,0.0030060691496078358,0.021329659259164413,0.043347372042818,0.02658600114909667,0.003006067726483988,0.02132964916134393,0.04334735152144089,1.8292583132687713e-05,2.06833451487556e-06,1.4675933333742575e-05,2.9825283871799426e-05,1.8292583132687713e-05,2.06833451487556e-06,1.4675933333742575e-05,2.9825283871799426e-05,-3.6953559322033933,28.291561725597845,-58.62,64.31,0.27633984601763734,0.0021147340385430273,0.2718938225401527,0.280515296850987,0.0028983283344113,0.0015176072679344505,0.0005717317303976516,0.004863223738830563,0.0026133798090915298,0.011084707415320605,9.469334046746658e-08,0.04964181028324579,-0.7734039460359611,0.002238235817373792,-0.7771449176873433,-0.7698908452464046,-5.778153658504817,3.618466051619129,-11.62567138671875,2.98614501953125,29.413157894736848,0.007292845505553012,29.41,29.43,0.05423728813559322,0.0008421052631578768,0,1,0
0,0.026838736465378453,0.0010595970590637517,0.024081873357121114,0.028898248028545334,0.02683872375946783,0.0010595965574326325,0.02408186195635605,0.02889823434762726,1.8466469733150793e-05,7.290588007292209e-07,1.656960215099968e-05,1.9883522581199616e-05,1.8466469733150793e-05,7.290588007292209e-07,1.656960215099968e-05,1.9883522581199616e-05,3.7250847457627136,15.009292214805743,-35.36,34.1,0.2702003222576193,0.0015827850756091955,0.2678358323883835,0.27441168164205215,0.0008325939618888039,0.0005111440005442792,0.00023839517467736724,0.0019371767761222076,1.042776540885991e-06,1.4467013702523294e-06,9.684883039984271e-08,5.568032954506377e-06,-0.7803468054093267,0.0015004034128043215,-0.7823474243909286,-0.7775521722900051,2.8333369819340484,2.816371422968797,-0.01983642578125,9.45281982421875,29.42000000000001,0.009999999999999787,29.41,29.43,0.13559322033898305,-0.0003508771929824487,0,1,0
0,0.026955783996824193,0.001419197924329496,0.026146033930588636,0.031650462126502035,0.026955771235501313,0.001419197252457259,0.02614602155261514,0.03165044714263938,1.854700462344162e-05,9.764832092147278e-07,1.7989853763942512e-05,2.177719139845672e-05,1.854700462344162e-05,9.764832092147278e-07,1.7989853763942512e-05,2.177719139845672e-05,-0.23250847457627133,9.91783805441776,-24.77,18.88,0.27086012917977587,0.004047395933686557,0.26733706835906096,0.2834319139528549,0.0023265943971732383,0.004693264723047056,5.0184274719763234e-05,0.015591186886779847,0.010064480953178988,0.03530316147753927,1.849077837512425e-07,0.1532315176912034,-0.7823720230735385,0.00032717621802394724,-0.7826792771969366,-0.7816026273133021,1.5401449034830224,3.2823310580938267,-2.79083251953125,8.038330078125,29.414444444444452,0.008314794192830804,29.41,29.43,0.16271186440677965,0.0,0,1,0
0,0.027414486346483635,0.0014550531441772897,0.025457980406099465,0.032338515650991204,0.027414473368003348,0.0014550524553305876,0.02545796835386211,0.03233850034139241,1.8862616092984477e-05,1.0011534962436616e-06,1.7516436559628233e-05,2.2250608602771e-05,1.8862616092984477e-05,1.0011534962436616e-06,1.7516436559628233e-05,2.2250608602771e-05,0.06472789115646319,21.38008835311915,-53.61,31.01,0.2764090428689679,0.002198976333052368,0.2732365617508885,0.28274345700110826,0.010087728808358818,0.003780656626703689,0.005743922286622679,0.016558221694279625,0.0023615037405418037,0.010009449270272985,1.519879980760308e-07,0.044827991702208414,-0.7794826817313357,0.0012677568197690947,-0.7814327251909873,-0.7773193923676357,-2.055290754451308,3.3257809709960537,-7.58056640625,4.53033447265625,29.414210526315795,0.008153649149910179,29.41,29.43,0.16326530612244897,0.000771929824561387,0,1,0
0,0.027615121185579,0.007355821531127583,0.013761070489783492,0.05435622843464479,0.027615108112114862,0.007355818048757589,0.013761063975060599,0.054356202701489366,1.9000663470451387e-05,5.0611941378929304e-06,9.468344086285531e-06,3.739995914082785e-05,1.9000663470451387e-05,5.0611941378929304e-06,9.468344086285531e-06,3.739995914082785e-05,0.24145762711864577,46.11308249507246,-101.96,132.13,0.2780673467943932,0.005905501689401528,0.2656079957544625,0.28672896260159053,0.008200326560768035,0.005486129580761966,0.0024848634247670253,0.017136963869393413,0.009677772847899436,0.028110827493877246,6.181807812866147e-08,0.10630916085677353,-0.7750322151542722,0.0012149492039141617,-0.7770696157070136,-0.7731009845374487,0.47554255197627404,1.5736859476939218,-1.70745849609375,3.814697265625,29.423333333333332,0.00942809041582043,29.41,29.43,0.13559322033898305,0.0014860681114550768,0,1,0
0,0.025771583032907507,0.0007790693672125786,0.022705766308142764,0.026834087455077812,0.02577157083220526,0.0007790689983879988,0.022705755558849988,0.02683407475136817,1.7732211747989194e-05,5.360409163901821e-07,1.5622767742371126e-05,1.8463270968256787e-05,1.7732211747989194e-05,5.360409163901821e-07,1.5622767742371126e-05,1.8463270968256787e-05,-0.45494915254237167,25.033705886686917,-61.11,46.05,0.2793119949591224,0.002238892212344504,0.2761133402381205,0.28430240909609594,0.006683973238399567,0.0039990623580087046,0.0018580347344921582,0.014788761936917364,2.4476716715594653e-07,1.7435232771927515e-07,1.416207756482768e-07,7.16330362859896e-07,-0.7713027965702617,0.0008908920637897083,-0.772893363586676,-0.7699889235996596,0.8513467187621162,3.7221233783503327,-4.33197021484375,6.915283203125,29.414210526315784,0.02391119303494801,29.39,29.45,0.13559322033898305,7.017543859648972e-05,0,1,0
0,0.026146033930588692,5.551115123125783e-17,0.026146033930588636,0.026146033930588636,0.02614602155261506,7.979727989493313e-17,0.02614602155261514,0.02614602155261514,1.798985376394257e-05,5.759824041329242e-20,1.7989853763942512e-05,1.7989853763942512e-05,1.798985376394257e-05,5.759824041329242e-20,1.7989853763942512e-05,1.7989853763942512e-05,0.04891525423728901,20.85448023667746,-48.25,26.08,0.2772104066231821,0.001563563963478219,0.27405361887880586,0.2792827949662844,0.0012683278635749486,0.0003404495373844006,0.0006842239638481108,0.0016648228449633396,0.000953683129271677,0.002381479848449616,1.606380368238125e-07,0.008936940355019372,-0.7693391969905621,0.0002624208443115053,-0.7698843847443858,-0.7690311661802447,-0.054221489101768536,2.2790276972776042,-3.08685302734375,4.229736328125,29.40222222222223,0.011811273125260471,29.39,29.43,0.13559322033898305,0.0016718266253869614,0,1,0
0,0.026904296998393046,0.0005184742242086339,0.026146033930588636,0.027522140979566984,0.026904284261445005,0.0005184739787541917,0.02614602155261514,0.027522127950121197,1.851157884624802e-05,3.5673767955203085e-07,1.7989853763942512e-05,1.8936688172571062e-05,1.851157884624802e-05,3.5673767955203085e-07,1.7989853763942512e-05,1.8936688172571062e-05,0.6144897959183686,18.474643026152727,-42.33,32.9,0.2776691718205058,0.0007582990561825022,0.27623769094434697,0.2786864162732234,0.0007536070711869254,0.0002830239085600216,0.00036478586391848044,0.001373535523139786,0.00015047737040653307,0.0006345090809850962,2.6759225797180763e-07,0.002842468227479019,-0.7690139374984866,9.113644691693323e-06,-0.7690264355548132,-0.7690008481139803,-0.5530580032703488,3.094470235076194,-4.15496826171875,5.26580810546875,29.421578947368427,0.009874559494364903,29.41,29.43,0.13605442176870747,-0.0004210526315789384,0,1,0
0,0.026838768091298863,5.655634264419353e-05,0.026834087455077812,0.027522140979566984,0.02683875538537333,5.655631586946694e-05,0.02683407475136817,0.027522127950121197,1.846649149345618e-05,3.891375404367347e-08,1.8463270968256787e-05,1.8936688172571062e-05,1.846649149345618e-05,3.891375404367347e-08,1.8463270968256787e-05,1.8936688172571062e-05,-0.3406440677966109,21.96534486047087,-48.19,27.31,0.27695409047315184,0.0006868239148659802,0.276070006807435,0.2784261724004474,0.0001412117274297174,8.597596941224384e-05,4.063214181411489e-05,0.00032570479271139274,1.6024047253277219e-07,7.271885962564942e-08,1.1127168472551113e-07,3.296333856844802e-07,-0.7688318932124267,0.00013229812349956971,-0.7690128535074854,-0.7686166601312681,0.009370212631864723,2.9135511319546916,-3.96881103515625,4.64324951171875,29.43,0.0,29.43,29.43,0.13559322033898305,0.0,0,1,0
0,0.02686198151688146,0.00017666239142289557,0.026146033930588636,0.027522140979566984,0.026861968799966298,0.00017666230778793962,0.02614602155261514,0.027522127950121197,1.848246355762086e-05,1.215530659725841e-07,1.7989853763942512e-05,1.8936688172571062e-05,1.848246355762086e-05,1.215530659725841e-07,1.7989853763942512e-05,1.8936688172571062e-05,0.7158305084745761,24.70154912945747,-65.82,41.97,0.2763487258879325,0.0006619558471184751,0.2752426561182026,0.277347343542049,1.528064812606101e-05,9.392556935682731e-06,4.523989346939535e-06,3.587517154967442e-05,2.173286070042745e-07,1.0027488146883233e-07,1.0859040870192863e-07,4.017583016149666e-07,-0.7688579952653497,0.00030063381384767726,-0.7695509684423534,-0.7685883202625701,1.0296766261598762,2.945013428679566,-3.08074951171875,5.66558837890625,29.438888888888886,0.009938079899998854,29.43,29.45,0.10847457627118644,0.0003302373581011281,0,1,0
0,0.026590694371585084,0.0005250664193936404,0.025457980406099465,0.028210194504056162,0.02659068178310175,0.0005250661708183392,0.02545796835386211,0.02821018114887423,1.829580365788714e-05,3.612734583885632e-07,1.7516436559628233e-05,1.941010537688534e-05,1.829580365788714e-05,3.612734583885632e-07,1.7516436559628233e-05,1.941010537688534e-05,-1.1948813559321991,22.133819446516874,-51.41,36.48,0.27617284211032905,0.0009790785750902304,0.2738538100008875,0.2774653140087286,0.0017331518893498256,0.001716543026033042,2.034430728350465e-06,0.0040771919929986815,0.00254734657881107,0.007884765707816845,3.296872699903313e-07,0.032463201030943106,-0.7721681238246086,0.0017856471456046145,-0.7755018030095212,-0.7697103141299363,-1.6853597560532336,2.7196717755193083,-6.25457763671875,3.45306396484375,29.438421052631583,0.016307298299820354,29.43,29.47,0.13559322033898305,0.0012631578947368152,0,1,0
0,0.024905665332019697,0.002301883405326753,0.016513284587740193,0.028210194504056162,0.02490565354125764,0.00230188231557632,0.01651327677007272,0.02821018114887423,1.7136414586097037e-05,1.583817490385319e-06,1.1362012903542639e-05,1.941010537688534e-05,1.7136414586097037e-05,1.583817490385319e-06,1.1362012903542639e-05,1.941010537688534e-05,5.080884353741498,23.831485188564063,-44.62,80.73,0.2768281606874022,0.0017582514931034953,0.27458532869519203,0.2813212517909299,0.010770276614156797,0.0051898528544953105,0.0036528590647591204,0.02051427275604297,0.015238982084442949,0.028747931233439734,1.819188771290392e-07,0.09977531496120773,-0.7802627869794851,0.0026688771078622257,-0.784650295636933,-0.7759680015750375,1.1000034531056142,2.9419142357813337,-3.631591796875,5.77545166015625,29.431111111111118,0.004581228472908414,29.43,29.45,0.13605442176870747,0.0003508771929824487,0,1,0
0,0.03612281003568161,0.00596167010067632,0.014449124014272667,0.04472347909179635,0.03612279293453409,0.005961667278321137,0.01444911717381363,0.04472345791894695,2.4854403226499512e-05,4.101944240750135e-06,9.941761290599808e-06,3.0772118280427976e-05,2.4854403226499512e-05,4.101944240750135e-06,9.941761290599808e-06,3.0772118280427976e-05,-9.39637288135593,35.729894363834745,-90.37,96.76,0.2703782462072364,0.006666524859556045,0.26370468905413086,0.28139804916184813,0.009729498037390346,0.00472548297956395,0.004107320721793887,0.019299040533532447,0.004332584344578052,0.011411830245450031,4.378041384978104e-08,0.04412752688625962,-0.7890530363317495,0.0021781794454289903,-0.7922302910477529,-0.7851533107881993,-0.11974410442797186,2.6479607494668223,-3.9947509765625,5.11932373046875,29.433157894736844,0.007292845505553009,29.43,29.45,0.10847457627118644,-0.0008421052631578768,0,1,0
0,0.036134511626234156,0.004428915838405093,0.022017712783653588,0.05435622843464479,0.03613449451954688,0.004428913741681626,0.02201770236009696,0.054356202701489366,2.4862454539498085e-05,3.047328266965294e-06,1.514935053805685e-05,3.739995914082785e-05,2.4862454539498085e-05,3.047328266965294e-06,1.514935053805685e-05,3.739995914082785e-05,6.17206779661017,15.26523044274078,-32.87,30.67,0.2685536529280964,0.0013862547999913901,0.26504675586271154,0.27028959162293986,0.008817607547667474,0.001243590586427201,0.006565317053850854,0.010838402367626421,0.004084812681900775,0.012871478071296216,1.3729206438384267e-07,0.05379472090915319,-0.7936317349612639,0.0005116196122123279,-0.7940995499143236,-0.792474834473764,-0.5067305131392046,2.4454336934412453,-3.59954833984375,4.180908203125,29.40555555555556,0.008314794192830804,29.39,29.41,0.16271186440677965,-0.00016511867905056406,0,1,0
0,0.030511454602854385,0.008732879690180679,0.014449124014272667,0.058484549581579844,0.030511440158217128,0.008732875555888127,0.01444911717381363,0.058484521894007546,2.0993493999422945e-05,6.008682960540973e-06,9.941761290599808e-06,4.024046236671351e-05,2.0993493999422945e-05,6.008682960540973e-06,9.941761290599808e-06,4.024046236671351e-05,0.1716949152542363,75.34121864979183,-186.6,231.46,0.26820767323123407,0.004490599199869537,0.26222127257604455,0.27445968771303964,0.008438637154917031,0.002635961564046982,0.0042874126528345624,0.012367056415657607,0.007895983791361699,0.021607601743676996,1.695693483960703e-07,0.08116182281052381,-0.7922822565297016,0.00130611561095508,-0.7939397398279333,-0.7897212561070939,2.319937959202466,4.138462407251754,-3.29437255859375,10.00213623046875,29.399473684210523,0.011909166841036337,29.37,29.41,0.08135593220338982,-0.0018947368421052227,0,1,0
0,0.025125655234407403,0.010747545982110966,0.0013761070489783493,0.03577878327343708,0.025125643339498405,0.010747540894041407,0.00137610639750606,0.03577876633515756,1.7287779270469624e-05,7.39487989087419e-06,9.468344086285532e-07,2.461769462434238e-05,1.7287779270469624e-05,7.39487989087419e-06,9.468344086285532e-07,2.461769462434238e-05,-5.6272108843537385,27.727678287971422,-66.38,43.18,0.26941817634816934,0.0016014151962344,0.26696156309588803,0.27231951412017685,0.004583971760666916,0.002331110547521903,0.0016247410256648844,0.009412759602252626,0.005812176652234073,0.02396244268455184,9.444618813414518e-08,0.1046118588450092,-0.7853660157138245,0.0025339746608406552,-0.7893241298479174,-0.7810803374960461,-1.6093796003545189,4.25801518005789,-7.67974853515625,7.06024169921875,29.378888888888884,0.009938079899998852,29.37,29.39,0.13605442176870747,-0.0006604747162022562,0,1,0
0,0.02163858124975137,0.009184052367293782,0.0,0.04953985376322058,0.02145134564547712,0.009613233752958108,-0.00481637239127121,0.04953983031021816,1.4759666988927424e-05,6.614416234083413e-06,-3.313920430199936e-06,3.408603871062791e-05,1.4759666988927424e-05,6.614416234083413e-06,-3.313920430199936e-06,3.408603871062791e-05,3.6397288135593135,35.994249360767355,-82.87,72.68,0.2775721316417892,0.003343762565381798,0.2699238253069537,0.2833408977517134,0.008102962613906728,0.0014677028751000935,0.005195560246604235,0.010411323465116319,0.0020143443268807095,0.006216287186428683,1.0441900216706657e-07,0.025594217787696327,-0.7762637404375073,0.0025371801221402675,-0.7805531490271711,-0.7722987545657304,0.8227010709766716,2.8709862147782497,-3.27301025390625,6.99005126953125,29.374444444444446,0.008314794192830805,29.37,29.39,0.02711864406779661,-0.0003302373581011281,0,1,0
0,0.0265179547546369,0.00034289405719054115,0.026146033930588636,0.026834087455077812,0.02651794220058972,0.00034289389485870963,0.02614602155261514,0.02683407475136817,1.824575495546376e-05,2.359292411904201e-07,1.7989853763942512e-05,1.8463270968256787e-05,1.824575495546376e-05,2.359292411904201e-07,1.7989853763942512e-05,1.8463270968256787e-05,0.3976271186440671,21.28167719424252,-46.99,52.24,0.27819364940748814,0.001861368592100139,0.27454465101304854,0.28121329816813123,0.0019650782578528713,0.0012475237181279121,0.0005227029589174748,0.004665601248394031,5.572429948344029e-07,8.333919725593494e-07,1.642657182082674e-07,3.852116121152993e-06,-0.7690744927336558,0.0015430220658379898,-0.7719003809995456,-0.7668346322220057,-0.789202649895074,2.2926154200861295,-4.80804443359375,2.801513671875,29.374210526315785,0.015326547135327079,29.35,29.39,0.13559322033898305,0.0021754385964911816,0,1,0
0,0.02622092411012493,0.00022882519416796506,0.025457980406099465,0.026834087455077812,0.026220911696697036,0.0002288250858382574,0.02545796835386211,0.02683407475136817,1.8041382167133235e-05,1.5744383226594973e-07,1.7516436559628233e-05,1.8463270968256787e-05,1.8041382167133235e-05,1.5744383226594973e-07,1.7516436559628233e-05,1.8463270968256787e-05,-0.4365646258503402,14.60141979284589,-36.04,19.48,0.2787185489765072,0.0009643888076793325,0.2770492246807245,0.2810759128088367,0.00019531605451646855,0.0001214584255127925,5.572690876012684e-05,0.00046134143702426474,5.574313129838577e-07,4.6726201724040587e-07,1.7749828183644123e-07,1.8080316896949833e-06,-0.7655575579231425,0.0005744812487475175,-0.7666545827211262,-0.7647753718269914,-0.01640603796719913,2.005674633318184,-3.1829833984375,3.6529541015625,29.41000000000001,1.0658141036401503e-14,29.41,29.41,0.10884353741496598,0.0,0,1,0
0,0.026323898106987233,0.0003012381254181756,0.026146033930588636,0.026834087455077812,0.026323885644809763,0.00030123798280696454,0.02614602155261514,0.02683407475136817,1.8112233721520353e-05,2.0726775765624205e-07,1.7989853763942512e-05,1.8463270968256787e-05,1.8112233721520353e-05,2.0726775765624205e-07,1.7989853763942512e-05,1.8463270968256787e-05,-0.10030508474576297,14.322800747858487,-33.34,28.63,0.27964928883920537,0.0009458822407203083,0.2780500911852294,0.28117852981840263,2.0280224394105655e-05,1.3043837442265207e-05,5.463760383289136e-06,4.9291245459676794e-05,2.248743780711991e-07,7.284714329805028e-08,1.255236454301479e-07,3.279442012568386e-07,-0.7644645515979258,0.00010951595728337361,-0.764720331810663,-0.7643675473141706,0.3454752654650667,4.27083502164706,-7.08160400390625,6.88934326171875,29.42052631578948,0.017613895295453846,29.41,29.45,0.13559322033898305,0.0013333333333333049,0,1,0
0,0.026169278982091704,0.00012431213615010634,0.026146033930588636,0.026834087455077812,0.026169266593113475,0.000124312077298644,0.02614602155261514,0.02683407475136817,1.8005847588412635e-05,8.553332242896579e-08,1.7989853763942512e-05,1.8463270968256787e-05,1.8005847588412635e-05,8.553332242896579e-08,1.7989853763942512e-05,1.8463270968256787e-05,1.0283050847457638,17.881355212788158,-44.26,24.09,0.27887863119357725,0.0010440942963095283,0.27618795193308293,0.2802466276355341,2.150974357044874e-06,1.2236403107080697e-06,7.67531540876647e-07,4.842547801333971e-06,1.6148131167693828e-07,4.257800368923582e-08,1.0482032771245379e-07,2.2458752861966136e-07,-0.7646272022591489,0.00016831071864423572,-0.7649406557257951,-0.7644001772213856,-0.06066398372052435,3.3402071717878643,-6.77947998046875,5.364990234375,29.441111111111113,0.009938079899998854,29.43,29.45,0.10847457627118644,-0.0006604747162022562,0,1,0
0,0.026225604746345953,0.000220039690755966,0.026146033930588636,0.026834087455077812,0.02622559233070216,0.00022003958658546407,0.02614602155261514,0.02683407475136817,1.8044602692332648e-05,1.5139894140242285e-07,1.7989853763942512e-05,1.8463270968256787e-05,1.8044602692332648e-05,1.5139894140242285e-07,1.7989853763942512e-05,1.8463270968256787e-05,-0.9468813559322039,15.104907557080825,-36.05,20.94,0.27889560302775035,0.0009298889209144231,0.2771308815325406,0.28010940179946525,6.0582927582335e-05,0.00013117876109308097,6.047680672889218e-07,0.00044088211731550553,0.0002887602551792396,0.0011778171547886511,2.5738285402595576e-07,0.005144927128362745,-0.7654382284341241,0.0002930089162484114,-0.7659566645583973,-0.7649871341312289,0.2991508557269043,1.9908797283933914,-3.314208984375,4.21905517578125,29.450000000000003,0.013333333333333051,29.43,29.47,0.13559322033898305,0.0013209494324045125,0,1,0
0,0.026019656752621304,0.000393340572622765,0.025457980406099465,0.026834087455077812,0.02601964443447677,0.00039334038640870245,0.02545796835386211,0.02683407475136817,1.790289958355831e-05,2.70639111067262e-07,1.7516436559628233e-05,1.8463270968256787e-05,1.790289958355831e-05,2.70639111067262e-07,1.7516436559628233e-05,1.8463270968256787e-05,-1.1457482993197272,16.780121782188655,-38.58,23.73,0.2787473196959393,0.0006742578088263068,0.27754136250162137,0.2803459451683862,0.0009167445379720804,0.0006408817731124491,0.00027364422895559615,0.0023437788512215467,0.0016702772701798442,0.004054596518708622,4.995207668404e-07,0.015725393080204333,-0.7669696580544619,0.000650461133997293,-0.7681746147573527,-0.7660324274100413,-0.3896621585816376,2.7586856556125925,-3.47137451171875,5.1116943359375,29.45421052631579,0.008153649149910179,29.45,29.47,0.13605442176870747,-0.0006315789473684076,0,1,0
0,0.02875877771952726,0.007054514298097001,0.014449124014272667,0.05091596081219893,0.028758764104636753,0.007054510958370932,0.01444911717381363,0.05091593670772422,1.9787559634379154e-05,4.853878830545421e-06,9.941761290599808e-06,3.5032873119256466e-05,1.9787559634379154e-05,4.853878830545421e-06,9.941761290599808e-06,3.5032873119256466e-05,-2.3983389830508495,18.567801589986107,-52.82,22.62,0.27661584708385734,0.003962061561449525,0.2675082013530549,0.2798483495924644,0.0014369925737914048,0.0006921001001980958,0.0004841612410589438,0.0024966131043073613,2.125348777431902e-07,2.746613959295718e-07,5.2588335668762864e-08,1.2125978432267481e-06,-0.7702645737192875,0.0012802426976320507,-0.7725126158893684,-0.7683501186896033,0.3883974913887973,2.9740527196332383,-3.6041259765625,6.77032470703125,29.456666666666667,0.009428090415820432,29.45,29.47,0.13559322033898305,0.0014860681114550768,0,1,0
0,0.022186215687610093,0.003368458482131032,0.008256642293870096,0.030274355077523685,0.022186205184281375,0.0033684568874459697,0.00825663838503636,0.03027434074513332,1.526528944523586e-05,2.317677536268874e-06,5.681006451771319e-06,2.083035698982817e-05,1.526528944523586e-05,2.317677536268874e-06,5.681006451771319e-06,2.083035698982817e-05,2.3394237288135575,43.98189041042565,-81.45,146.35,0.27912181481443943,0.002960754637296733,0.270958875248146,0.2833364525003522,0.009552267515728763,0.004293381617328491,0.0004278809703226616,0.013936724365567081,0.009214122905531431,0.026537322510761817,9.477766628462891e-08,0.11656224392652909,-0.7753790942136662,0.0015034999761390324,-0.7776835384533192,-0.7728091673943566,-0.33095669805559863,3.493777621625751,-5.63812255859375,6.43463134765625,29.470000000000017,1.7763568394002505e-14,29.47,29.47,0.05423728813559322,0.0,0,1,0
0,0.024662999644696423,0.0010296377130407785,0.022017712783653588,0.026834087455077812,0.024662987968816313,0.001029637225592918,0.02201770236009696,0.02683407475136817,1.6969447762751647e-05,7.084451866244009e-07,1.514935053805685e-05,1.8463270968256787e-05,1.6969447762751647e-05,7.084451866244009e-07,1.514935053805685e-05,1.8463270968256787e-05,-0.6713559322033886,19.534336953051326,-49.47,28.96,0.2730079417766513,0.0014489038036084641,0.2703599402339645,0.27524772985504203,0.004076135676080068,0.0010486294109898302,0.0023759698600937804,0.0057395589659144,0.005835371915101639,0.014936155473904962,1.0182495163713057e-07,0.05965799416418337,-0.7787236698832509,0.00034927101131473106,-0.7790531302103768,-0.7778811846835332,0.32073851516444307,2.9850483261845984,-3.0975341796875,6.38580322265625,29.46222222222223,0.009749960430435483,29.45,29.47,0.13559322033898305,-0.0002683178534571666,0,1,0
0,0.022476415133313006,0.0018236590063694681,0.018577445161207715,0.026834087455077812,0.02247640449259899,0.0018236581430185316,0.018577436366331808,0.02683407475136817,1.5464962007599696e-05,1.254773818735911e-06,1.2782264516485466e-05,1.8463270968256787e-05,1.5464962007599696e-05,1.254773818735911e-06,1.2782264516485466e-05,1.8463270968256787e-05,1.4130612244897967,28.070202120602726,-41.22,111.88,0.2784695623957091,0.002196172808846347,0.27534891154204794,0.28216615188912386,0.009657555825660424,0.002009470025717659,0.006396526449626657,0.013058911943415387,0.006007088826733776,0.01670371232008724,1.053505135073518e-07,0.06669895149063387,-0.7770779263266705,0.0010564939016461255,-0.7786412141433137,-0.7752579859967448,0.21159185365188954,2.808406989556727,-4.03289794921875,4.47540283203125,29.45000000000001,0.012977713690460725,29.43,29.47,0.13605442176870747,0.0005614035087719177,0,1,0
0,0.02391337045316456,0.00029588137540603916,0.023393819832631935,0.024081873357121114,0.023913359132171567,0.00029588123533080276,0.02339380875760302,0.02408186195635605,1.6453663243820718e-05,2.0358203042035662e-07,1.6096184946685404e-05,1.656960215099968e-05,1.6453663243820718e-05,2.0358203042035662e-07,1.6096184946685404e-05,1.656960215099968e-05,0.6004067796610166,17.967903356289817,-44.95,27.59,0.27562318127376906,0.0015385985209101047,0.27354283882429486,0.2789112528074014,0.0038530589100090893,0.002293199698023912,0.0011256899639288404,0.008662726010967051,1.2556333902312422e-07,2.5503727191520393e-08,1.011510183668296e-07,1.9636791647598129e-07,-0.7737939900052547,0.0006261861066638537,-0.7750536693524386,-0.7731241618872983,0.10701604707619065,2.3429334686373458,-3.09295654296875,4.23431396484375,29.449999999999996,3.552713678800501e-15,29.45,29.45,0.13559322033898305,0.0,0,1,0
0,0.023872667893594,0.0005224089378822833,0.022017712783653588,0.02476992688161029,0.023872656591870323,0.0005224086905650794,0.02201770236009696,0.02476991515510908,1.642565773076898e-05,3.594449705996844e-07,1.514935053805685e-05,1.7043019355313955e-05,1.642565773076898e-05,3.594449705996844e-07,1.514935053805685e-05,1.7043019355313955e-05,1.357932203389831,19.217569895108213,-45.88,25.76,0.2745743259564534,0.0006552146008803322,0.27339236870898925,0.2755466333545585,0.001015982152590537,0.0004081835941988684,0.0004696507747034396,0.0016457879949312332,0.0009689348393254267,0.0027380925489953172,2.2732100265696054e-07,0.009475166082563984,-0.7739531585903806,0.0006038371284884809,-0.7750506370797663,-0.7731562869297223,-0.37629224852379384,2.100494781139328,-2.87322998046875,3.851318359375,29.450000000000003,0.013333333333333051,29.43,29.47,0.10847457627118644,0.0006604747162022562,0,1,0
0,0.023407861741295014,0.000325699642322324,0.022705766308142764,0.02476992688161029,0.023407850659618427,0.00032569948813061816,0.022705755558849988,0.02476991515510908,1.610584652228361e-05,2.240985746404967e-07,1.5622767742371126e-05,1.7043019355313955e-05,1.610584652228361e-05,2.240985746404967e-07,1.5622767742371126e-05,1.7043019355313955e-05,-0.8751525423728799,21.729789313769206,-45.84,46.66,0.2754127961973842,0.0010143822686869569,0.2731348268094345,0.2767950709944454,0.0035566465767122536,0.0010915503430966474,0.0012493206570575765,0.004675090589536009,0.0031524669495720946,0.008863969028057106,9.572224769077708e-08,0.03570028777109134,-0.7760788252643105,0.0004154132261346709,-0.7764848826560614,-0.7751939987151141,-0.014725394047815215,2.3662953519924996,-2.98614501953125,4.73480224609375,29.44684210526316,0.020787808061190616,29.41,29.47,0.13559322033898305,0.0027719298245613444,0,1,0
0,0.0331529463534478,0.007604468205217601,0.018577445161207715,0.04816374671424223,0.03315293065828375,0.00760446460513408,0.018577436366331808,0.0481637239127121,2.281097998746955e-05,5.232276196366702e-06,1.2782264516485466e-05,3.313920430199936e-05,2.281097998746955e-05,5.232276196366702e-06,1.2782264516485466e-05,3.313920430199936e-05,2.8869047619047605,42.30537693923222,-62.68,122.13,0.2768988466773063,0.005833400795460268,0.26638208647139994,0.28759997466680826,0.006994281408775435,0.004700880901226176,0.0012951258663938716,0.01304256103066763,0.007519608122343157,0.031002750598603687,8.482213534333205e-08,0.13534722348844605,-0.7748525152121108,0.0010760689549607955,-0.7763102636466083,-0.7728757244815845,0.6272644913817753,3.1770014758443272,-4.26483154296875,5.19561767578125,29.470000000000013,1.4210854715202004e-14,29.47,29.47,0.13605442176870747,0.0,0,1,0
0,0.03637850560221472,0.0006261338436817598,0.03577878327343708,0.03715489032241543,0.03637848838001664,0.0006261335472594322,0.03577876633515756,0.037154872732663616,2.503033529567028e-05,4.3081319003843455e-07,2.461769462434238e-05,2.5564529032970932e-05,2.503033529567028e-05,4.3081319003843455e-07,2.461769462434238e-05,2.5564529032970932e-05,-1.8230169491525507,32.51947571944402,-96.34,49.79,0.2780130411211332,0.0011980278313811355,0.2761693870691048,0.2808655035394704,0.003484567247796075,0.002197330459672521,0.0009310965583649503,0.008207191201939435,2.8388158087084896e-07,7.948149418615794e-08,1.6857458493002575e-07,4.346030062496453e-07,-0.7701540285520365,0.0014262141518557947,-0.7725967351328995,-0.7679910338881176,0.03932640511108096,2.3213754124674377,-3.24554443359375,4.16107177734375,29.46368421052633,0.009296590385608062,29.45,29.47,0.13559322033898305,-0.00024561403508771405,0,1,0
0,0.03584431218053117,0.00020197365624539192,0.03577878327343708,0.036466836797926255,0.03584429521122933,0.00020197356062765578,0.03577876633515756,0.03646681953391059,2.466278197713416e-05,1.389685544533974e-07,2.461769462434238e-05,2.5091111828656657e-05,2.466278197713416e-05,1.389685544533974e-07,2.461769462434238e-05,2.5091111828656657e-05,-1.309525423728813,15.881692918082411,-38.48,19.85,0.27823820704651525,0.0006594841688349781,0.2773033488417134,0.27963004121099616,0.0006144934159238979,0.000337776026372739,0.00020815432682678872,0.0012315472179311188,0.000683196433891166,0.002808246503814351,2.52140559766148e-07,0.012261889233212628,-0.7670950862956972,0.0002995197179106543,-0.7678162509398629,-0.7668422239814743,-0.16533037612351653,2.2613121147097357,-3.0731201171875,3.90472412109375,29.45444444444444,0.008314794192830804,29.45,29.47,0.13559322033898305,0.0004953560371516923,0,1,0
0,0.03606237290177374,0.000338676491633979,0.03577878327343708,0.036466836797926255,0.03606235582923824,0.00033867633129881433,0.03577876633515756,0.03646681953391059,2.481281928287729e-05,2.3302733309208988e-07,2.461769462434238e-05,2.5091111828656657e-05,2.481281928287729e-05,2.3302733309208988e-07,2.461769462434238e-05,2.5091111828656657e-05,0.6753559322033899,15.466785203600953,-37.27,18.59,0.27858241626359054,0.0006514248727165665,0.2776630897805997,0.2796805997500584,0.000563620461580256,0.0003220873202955792,0.00016211971558369805,0.0011785553015005363,5.288100268236279e-07,4.559055498475965e-07,1.710716680410583e-07,1.944911584450537e-06,-0.7672550784359777,0.00018595689499405755,-0.7674713017527189,-0.7669255681492885,-0.34507581081343053,2.0933951096773105,-2.88238525390625,3.64837646484375,29.485789473684218,0.008153649149910179,29.47,29.49,0.13559322033898305,0.001052631578947346,0,1,0
0,0.03612046971757109,0.0003532562703605947,0.035090729748947905,0.036466836797926255,0.036120452617531544,0.0003532561031231166,0.03509071313640453,0.03646681953391059,2.4852792963899796e-05,2.4305899173289023e-07,2.4144277420028106e-05,2.5091111828656657e-05,2.4852792963899796e-05,2.4305899173289023e-07,2.4144277420028106e-05,2.5091111828656657e-05,-0.7696598639455782,16.021892523056128,-38.1,23.05,0.2779575620563682,0.0007684711788559016,0.27696537049786185,0.279432041047736,6.0742073087383824e-05,3.768938273065651e-05,1.7295206430211656e-05,0.00014317916090662635,1.7435277366004306e-07,3.319106415189949e-08,1.3036646965192047e-07,2.286162518630279e-07,-0.7666981609019836,0.0006259587432568803,-0.7674476632003847,-0.765476205681515,-0.004730035294374224,2.2835666867570423,-3.10821533203125,4.180908203125,29.494444444444444,0.00831479419283228,29.49,29.51,0.13605442176870747,0.0009907120743035606,0,1,0
0,0.0385450392800568,0.0033327773334922276,0.02476992688161029,0.04816374671424223,0.03854502103218497,0.0033327757556992246,0.02476991515510908,0.0481637239127121,2.652102501719778e-05,2.2931270194353944e-06,1.7043019355313955e-05,3.313920430199936e-05,2.652102501719778e-05,2.2931270194353944e-06,1.7043019355313955e-05,3.313920430199936e-05,-1.4622711864406792,23.80477322725495,-82.94,59.12,0.27990365229353287,0.002207858387851966,0.2766142987860046,0.2850187543397427,0.0005632548330858331,0.0010363826747118857,3.7025258203368216e-06,0.003055979183340604,0.0018607089648080926,0.0076687133289067445,1.0028271795340716e-07,0.03347962343427823,-0.7636332310506345,0.0009847449975369934,-0.7652853383687371,-0.7621134082547338,0.26862333548057904,2.729200632834686,-3.54461669921875,4.339599609375,29.518888888888878,0.015234788000892006,29.49,29.53,0.13559322033898305,0.0011971104231167547,0,1,0
0,0.037768559682094985,0.007606587849881107,0.017201338112229368,0.0653650848264716,0.0377685418018217,0.0076065842487941125,0.01720132996882575,0.06536505388153785,2.5986765998980982e-05,5.233734623967203e-06,1.1835430107856916e-05,4.497463440985627e-05,2.5986765998980982e-05,5.233734623967203e-06,1.1835430107856916e-05,4.497463440985627e-05,2.279050847457631,70.34707723643736,-122.75,182.48,0.28266083474860965,0.0011504648177719005,0.28058763366478573,0.28517715318950393,0.0019740732674858818,0.0006365758158412012,0.0010027160954041777,0.003074798582519338,0.0004889294600433714,0.0010715024857732738,1.6886929114778848e-07,0.003505392097069522,-0.761512341471972,0.00020513581183776225,-0.7619750656787128,-0.761282331686128,-0.09456473603733716,2.786083719041092,-3.53851318359375,5.25054931640625,29.529999999999983,1.7763568394002505e-14,29.53,29.53,0.08135593220338982,0.0,0,1,0
0,0.031767478032027396,0.009235871432340313,0.008256642293870096,0.05229206786117727,0.03176746299276744,0.009235867059922995,0.00825663838503636,0.05229204310523028,2.1857704528442148e-05,6.354767873837759e-06,5.681006451771319e-06,3.5979707527885024e-05,2.1857704528442148e-05,6.354767873837759e-06,5.681006451771319e-06,3.5979707527885024e-05,1.385374149659867,77.60219045204366,-196.48,162.9,0.2818151697990665,0.004483120346124733,0.27494979145937076,0.29122449127285105,0.003132269843692565,0.0025481818633815937,0.00040339490921976486,0.0065202100465450875,0.003831113107762428,0.0157940104881587,7.525988607315348e-08,0.06895148642420686,-0.763108259630067,0.0007664437270356837,-0.7643468155034233,-0.7618970189076213,1.065880844078348,2.7840947313342506,-2.97393798828125,5.32073974609375,29.52999999999999,0.013333333333333048,29.51,29.55,0.16326530612244897,-0.0006604747162022562,0,1,0
0,0.039612224338448306,0.0006112129554023103,0.037842943846904606,0.042659318518328826,0.03961220558535301,0.0006112126660437876,0.03784292593141665,0.04265929832268786,2.7255304762664804e-05,4.2054682998979577e-07,2.6037946237285214e-05,2.935186666748515e-05,2.7255304762664804e-05,4.2054682998979577e-07,2.6037946237285214e-05,2.935186666748515e-05,-5.9092203389830456,30.824070196194484,-77.04,54.06,0.2802325879493827,0.0006428352722911387,0.27892242036461873,0.2811132011873847,0.0019967756068738204,0.0011990755236798497,0.0006069837991568982,0.004572137280778421,4.932650872355171e-05,0.0001475664675313394,1.8134390331048245e-07,0.0006037358664027215,-0.7648893802597323,0.00020808625419873944,-0.7651275113154609,-0.7644707977435067,-0.5506856269931083,2.7484550601193014,-4.046630859375,4.827880859375,29.519473684210528,0.01986101290959326,29.49,29.55,0.16271186440677965,-7.017543859663931e-05,0,1,0
0,0.03856818945379866,0.00020832546633673502,0.037842943846904606,0.039219050895882956,0.03856817119496709,0.0002083253677119439,0.03784292593141665,0.03921903232892271,2.6536953560751662e-05,1.4333893563560364e-07,2.6037946237285214e-05,2.6984780645913764e-05,2.6536953560751662e-05,1.4333893563560364e-07,2.6037946237285214e-05,2.6984780645913764e-05,5.334271186440672,23.644057885278272,-53.46,39.3,0.28053628734644886,0.0017125861790262937,0.27746423650429636,0.2832401734697306,0.0002310041371085701,0.00014218084585644055,6.588703193248426e-05,0.0005389948594332124,2.057994587174814e-07,1.1772916881312496e-07,1.0695966168533869e-07,4.880622012093383e-07,-0.7626044650950233,0.0012068735751740495,-0.764393698792,-0.7605002124414627,-0.15774501098670687,2.135181100643696,-3.11737060546875,3.95355224609375,29.508888888888887,0.014098419489389377,29.49,29.53,0.13559322033898305,-0.0003095975232199213,0,1,0
0,0.0383531331949953,0.0003317643406060724,0.037842943846904606,0.03990710442037213,0.03835311503797499,0.00033176418354323613,0.03784292593141665,0.03990708552767574,2.6388983484021668e-05,2.2827140771861054e-07,2.6037946237285214e-05,2.745819785022804e-05,2.6388983484021668e-05,2.2827140771861054e-07,2.6037946237285214e-05,2.745819785022804e-05,-1.0985084745762717,45.46144478393914,-106.95,160.61,0.28351313097595465,0.0021646888437949594,0.27900578180199853,0.2877744902784641,0.001050577284933069,0.0011396976820563834,2.196551668848429e-05,0.002651267863645206,0.0015993986857856472,0.006588581758850589,2.8071025112231043e-07,0.028764815996259897,-0.7581104246732732,0.0012201023318545476,-0.76023019350531,-0.7562918053949866,-0.22946700079264273,1.9651226474315744,-2.70233154296875,3.68499755859375,29.509999999999998,0.013333333333334233,29.49,29.53,0.08135593220338982,0.0006604747162022562,0,1,0
0,0.038311007469006154,0.0003208882524140384,0.037842943846904606,0.03853099737139378,0.03831098933192886,0.00032088810050012615,0.03784292593141665,0.03853097913016968,2.6359998757226916e-05,2.2078808399089558e-07,2.6037946237285214e-05,2.651136344159949e-05,2.6359998757226916e-05,2.2078808399089558e-07,2.6037946237285214e-05,2.651136344159949e-05,-1.3414285714285707,19.877582970821805,-48.17,28.72,0.28531472535564145,0.0013032811372791927,0.28212267491767323,0.2870024390164836,0.00090344023655003,0.0005540954027659621,0.00024663458573060006,0.002059764736276072,3.0344163946478237e-07,3.3991518277296636e-07,9.953653251973393e-08,1.4626418065322166e-06,-0.7553707590936213,0.00034253985895926927,-0.7561388359473796,-0.755050773135867,0.06808542650799419,1.9809191934942378,-2.68402099609375,4.10003662109375,29.507894736842097,0.006137844099838117,29.49,29.51,0.10884353741496598,-0.0005964912280702686,0,1,0
0,0.03840082508297698,0.00026948223905178713,0.037842943846904606,0.03853099737139378,0.03840080690337852,0.0002694821114743484,0.03784292593141665,0.03853097913016968,2.6421798024567092e-05,1.8541802880664617e-07,2.6037946237285214e-05,2.651136344159949e-05,2.6421798024567092e-05,1.8541802880664617e-07,2.6037946237285214e-05,2.651136344159949e-05,1.7291186440677961,17.429567705759442,-42.25,20.7,0.28426758692030446,0.0009350143939827345,0.2827444023557755,0.2858670533168705,9.232984062950978e-05,5.726194789199779e-05,2.647364384375685e-05,0.00021772514734729083,4.259938659389288e-07,1.4971364558197164e-07,2.4886649778194797e-07,8.036633402429359e-07,-0.7556272154041542,0.0004117029874917712,-0.7564119348098186,-0.7550941036572433,0.6227545955704119,2.237820949277269,-2.87322998046875,4.87518310546875,29.512222222222217,0.011331154474651165,29.49,29.53,0.13559322033898305,0.0004953560371518096,0,1,0
0,0.03895225463128522,0.0030290190417484007,0.037842943846904606,0.06742924539993912,0.0389522361906307,0.0030290176077596926,0.03784292593141665,0.06742921347779694,2.6801210709546975e-05,2.0841252540983066e-06,2.6037946237285214e-05,4.6394886022799105e-05,2.6801210709546975e-05,2.0841252540983066e-06,2.6037946237285214e-05,4.6394886022799105e-05,1.1179322033898311,27.374693289119605,-76.27,51.86,0.2832399222731981,0.0010947053142338406,0.28147215815112947,0.285078004875005,1.1767447417727036e-05,7.486759348211391e-06,3.6884839073621914e-06,3.241936514572653e-05,3.7726838367173634e-05,0.00015427257157744692,1.7572780677187162e-07,0.0006921463769809558,-0.7578169782912458,0.0008234139324037657,-0.7592267813692921,-0.7565337744951125,0.11250848509833475,4.000761971545487,-5.01556396484375,6.89849853515625,29.50684210526315,0.007292845505554308,29.49,29.51,0.05423728813559322,-0.0008421052631580263,0,1,0
0,0.031046090787423708,0.00830103929751207,0.011008856391826794,0.05229206786117727,0.03104607608968061,0.008301035367660047,0.01100885118004848,0.05229204310523028,2.1361351962234728e-05,5.71155393768051e-06,7.574675269028425e-06,3.5979707527885024e-05,2.1361351962234728e-05,5.71155393768051e-06,7.574675269028425e-06,3.5979707527885024e-05,-0.787322033898305,38.96587135066573,-93.72,87.29,0.28298452821499454,0.002835907616466385,0.2803921239391673,0.289974446246876,0.002448309657892521,0.0010978294892603653,5.234735805094531e-05,0.003847461974379534,0.002295255039655261,0.009460041432409272,8.54819705714549e-08,0.04130000414331148,-0.7608662409121867,0.0009007482801602786,-0.7623382710816454,-0.7593957854929455,0.3132189574021195,3.7972817549559568,-6.03179931640625,5.75714111328125,29.50444444444444,0.016063146994224547,29.49,29.53,0.13559322033898305,0.0026625386996906425,0,1,0
0,0.03460862421818339,0.00565815549553464,0.01926549868569689,0.044035425567307176,0.03460860783387688,0.005658152816868384,0.01926548956508484,0.04403540472019392,2.3812563324488173e-05,3.893110144679758e-06,1.3255681720799745e-05,3.02987010761137e-05,2.3812563324488173e-05,3.893110144679758e-06,1.3255681720799745e-05,3.02987010761137e-05,3.7759183673469345,36.6240282684139,-87.79,158.33,0.28144622031339056,0.0031721245342377627,0.27879813806845943,0.2895988903565426,0.0025951088741422005,0.0033200448517579774,0.0002784806466152041,0.00945893252026852,0.005350210888619213,0.022695919550300994,1.1875015684670309e-07,0.10164084252695396,-0.7639201014527252,0.0008219793746314763,-0.7651909689957471,-0.7625079004737678,0.04689439877059109,2.3534543597152244,-2.777099609375,5.02777099609375,29.50999999999999,0.012977713690461879,29.49,29.53,0.16326530612244897,0.0016842105263158657,0,1,0
0,0.03461798549062539,0.0004231771464921371,0.034402676224458736,0.03577878327343708,0.03461796910188714,0.00042317694615293935,0.0344026599376515,0.03577876633515756,2.381900437488697e-05,2.911682514390675e-07,2.367086021571383e-05,2.461769462434238e-05,2.381900437488697e-05,2.911682514390675e-07,2.367086021571383e-05,2.461769462434238e-05,-3.564576271186446,36.78634441377573,-96.25,50.91,0.2814461007342495,0.001530095347715493,0.279349978505458,0.28637611292451615,0.005637837936776431,0.001832427268120122,0.003013119755590951,0.009146458099635152,0.0031708825187949413,0.008281763133107068,1.1634364627255422e-07,0.03376071950054061,-0.7660064063236314,0.00035143507647411755,-0.766419209330076,-0.7653076668281045,-0.4544993420398794,2.6401511615999436,-4.03289794921875,4.32281494140625,29.536666666666665,0.009428090415820432,29.53,29.55,0.13559322033898305,0.0008255933952528204,0,1,0
0,0.03913536871047217,0.0021683135552965807,0.034402676224458736,0.041283211469350475,0.039135350183128456,0.0021683125287803645,0.0344026599376515,0.041283191925181796,2.6927202877821505e-05,1.4919143713236017e-06,2.367086021571383e-05,2.8405032258856593e-05,2.6927202877821505e-05,1.4919143713236017e-06,2.367086021571383e-05,2.8405032258856593e-05,-0.6738983050847455,13.405049392299798,-36.21,20.42,0.28074090584951095,0.0013239575663541918,0.27826241423690457,0.2830006758773835,0.0032444075850654114,0.0017248875093941714,0.001025744865826653,0.0064020967735347566,3.896167611521259e-07,4.1260958185144943e-07,1.1758136411049724e-07,1.4541660648126342e-06,-0.7660116423128718,0.0003629132912451744,-0.7664223735564744,-0.7653038819326798,0.29359463020914134,1.8208933487507097,-2.90069580078125,3.46221923828125,29.549999999999997,0.018856180831640867,29.53,29.57,0.10847457627118644,0.002641898864809025,0,1,0
0,0.039485847160480925,0.00033524597443329633,0.039219050895882956,0.03990710442037213,0.03948582846721473,0.0003352458157221963,0.03921903232892271,0.03990708552767574,2.716835058228048e-05,2.3066695587622541e-07,2.6984780645913764e-05,2.745819785022804e-05,2.716835058228048e-05,2.3066695587622541e-07,2.6984780645913764e-05,2.745819785022804e-05,-0.39959322033898287,13.103697440577273,-30.99,17.78,0.2789269550266045,0.0007627252527182249,0.2773169428935696,0.28043662007335274,0.0003686121830012994,0.00024121134804040804,9.575699923575364e-05,0.0009059896997249691,1.6067526502680042e-07,6.893012322379514e-08,9.588767157717171e-08,2.819952880975772e-07,-0.7645245692574864,0.0003222456618596442,-0.7651996258198773,-0.7642043149147331,-0.5304322349226505,2.0150052593855383,-3.00140380859375,3.58428955078125,29.570000000000004,3.552713678800501e-15,29.57,29.57,0.13559322033898305,0.0,0,1,0
0,0.038521636098951706,0.0008530836716226578,0.03715489032241543,0.03990710442037213,0.038521617862159525,0.0008530832677584583,0.037154872732663616,0.03990708552767574,2.6504922391200684e-05,5.869666711838947e-07,2.5564529032970932e-05,2.745819785022804e-05,2.6504922391200684e-05,5.869666711838947e-07,2.5564529032970932e-05,2.745819785022804e-05,-0.21486394557823094,13.195808696641517,-31.48,17.33,0.2791958289931376,0.0013700922647192284,0.2765493766779282,0.2814612223089071,0.0009731645401912375,0.0009669982844084032,3.5425962247202675e-05,0.0030146344351254296,0.0031872299735103533,0.009365459089368295,2.0281835233959718e-07,0.03636878417359143,-0.7658573804630889,0.0012500149936477737,-0.7683296081383728,-0.7643319050874433,-0.05247054561491935,2.404102712911995,-3.31268310546875,4.44183349609375,29.57555555555555,0.016063146994222947,29.55,29.59,0.13605442176870747,2.0639834881320507e-05,0,1,0
0,0.030158129820008584,0.008308543632992577,0.00894469581835927,0.0516040143366881,0.030158115542641254,0.008308539699587874,0.00894469158378939,0.05160398990647725,2.0750387867477793e-05,5.716717317267973e-06,6.154423656085595e-06,3.550629032357074e-05,2.0750387867477793e-05,5.716717317267973e-06,6.154423656085595e-06,3.550629032357074e-05,-2.520135593220339,50.802784529135984,-110.79,150.05,0.28270572075528366,0.0042784526907938365,0.27740048450782356,0.2907311587470653,0.013420410367623968,0.009082813470607706,0.0039137081600962645,0.026147165933298883,0.018708036982516024,0.058175283650083794,4.532372442911381e-07,0.2535364606608842,-0.7726854022748034,0.002417447722024362,-0.7765596782291555,-0.7687333622099569,1.040001956759848,2.9513480972343937,-4.18548583984375,5.18035888671875,29.59421052631578,0.008153649149910177,29.59,29.61,0.08135593220338982,0.001052631578947346,0,1,0
0,0.023201913747570312,0.004342581178258153,0.01926549868569689,0.03577878327343708,0.02320190276339298,0.004342579122406972,0.01926548956508484,0.03577876633515756,1.5964143413509314e-05,2.9879254560102434e-06,1.3255681720799745e-05,2.461769462434238e-05,1.5964143413509314e-05,2.9879254560102434e-06,1.3255681720799745e-05,2.461769462434238e-05,1.5217627118644095,25.920015659873755,-76.27,63.3,0.28678374966724696,0.0026327811637760607,0.28226282596313623,0.2920834139867002,0.024748145387421313,0.0033645080443939694,0.019146425181266472,0.02977227725066308,0.014217257725121859,0.03589855698055233,4.278957804748629e-08,0.14378692626590384,-0.7789596487609797,0.0009412454172360115,-0.7798602539267614,-0.7769344613576139,-0.85428340295217,2.57641443352462,-3.91387939453125,4.07562255859375,29.601111111111102,0.009938079899998854,29.59,29.61,0.08135593220338982,-0.0009907120743033846,0,1,0
0,0.03407724550341659,0.0006519895098641007,0.033026569175480386,0.03577878327343708,0.03407722937067374,0.0006519892012012692,0.03302655354014544,0.03577876633515756,2.344694667313279e-05,4.4860325543896755e-07,2.2724025807085277e-05,2.461769462434238e-05,2.344694667313279e-05,4.4860325543896755e-07,2.2724025807085277e-05,2.461769462434238e-05,-0.2971525423728797,25.593864108953507,-47.82,65.94,0.27438772221698493,0.0017719525499398216,0.271661274755224,0.27941046244032347,0.0072449702394945265,0.004599512903318987,0.0019255060823715282,0.01719704940328726,1.6926855604451765e-07,6.787075333334291e-08,4.638334533124677e-08,2.728854899755606e-07,-0.7775918392309124,0.001535108979520267,-0.7796609831669723,-0.7747587362144702,0.1528676035386457,2.592752686982974,-3.3935546875,4.68902587890625,29.60789473684211,0.012805815853259135,29.59,29.65,0.08135593220338982,0.0008421052631578768,0,1,0
0,0.030021600721588867,0.0023427133705066975,0.026834087455077812,0.033026569175480386,0.030021586508856654,0.0023427122614266714,0.02683407475136817,0.03302655354014544,2.065644862905967e-05,1.611910665232566e-06,1.8463270968256787e-05,2.2724025807085277e-05,2.065644862905967e-05,1.611910665232566e-06,1.8463270968256787e-05,2.2724025807085277e-05,2.4801700680272125,15.425197524782623,-34.82,32.12,0.2760744974556784,0.001672597933541088,0.2736140866535973,0.2792656997600083,0.0011188051272164675,0.0002496375570720112,0.0007083044231759866,0.0016993273074070424,0.0006517763149559495,0.001985509409276487,2.0493259097337235e-07,0.008118565160645342,-0.7712906898119392,0.001811795192184858,-0.7743824510172902,-0.7685345077593523,0.44959141657902646,2.8377115500218597,-3.69720458984375,4.68902587890625,29.624444444444446,0.014614384931072918,29.61,29.65,0.13605442176870747,-0.000928792569659423,0,1,0
0,0.027152370718106823,0.00034306221795562137,0.026834087455077812,0.027522140979566984,0.02715235786371649,0.0003430620555441811,0.02683407475136817,0.027522127950121197,1.8682266681817134e-05,2.360449446879632e-07,1.8463270968256787e-05,1.8936688172571062e-05,1.8682266681817134e-05,2.360449446879632e-07,1.8463270968256787e-05,1.8936688172571062e-05,-2.2678305084745767,17.123918450223837,-36.14,40.46,0.2791125752920556,0.0009787426086458324,0.27681068308172735,0.28080510837048356,0.001153983448666661,0.0003936946510961787,0.0005951205296721708,0.0017514286195366526,0.0009827602917109489,0.0035440068827330504,2.429671516548937e-07,0.015466134982865086,-0.7668320709935569,0.0007502849087831705,-0.7682870264862643,-0.7658282721639146,-0.47226591284808406,2.471257409503707,-3.22418212890625,4.40216064453125,29.635555555555552,0.008958064164775974,29.63,29.65,0.13559322033898305,0.001341589267285833,0,1,0
0,0.027243200361530828,0.0003378138643877298,0.026834087455077812,0.027522140979566984,0.02724318746414016,0.0003378137044609489,0.02683407475136817,0.027522127950121197,1.8744762278930155e-05,2.3243379993696645e-07,1.8463270968256787e-05,1.8936688172571062e-05,1.8744762278930155e-05,2.3243379993696645e-07,1.8463270968256787e-05,1.8936688172571062e-05,0.12210169491525405,16.215422758716326,-38.19,23.36,0.27916254301712984,0.0010477461964850025,0.27738926741475767,0.2811754451144363,0.0005605540717820227,0.00034665775778687394,0.00015215313321744706,0.0012907201914970675,1.9812986477395285e-07,4.006077108028583e-08,1.5823984422617954e-07,3.022630053087054e-07,-0.7653574917041726,0.00021365654948554252,-0.7657599266246908,-0.7650229436851257,-0.023413059433399892,1.9275059233428444,-2.73284912109375,3.6590576171875,29.645789473684196,0.00815364914991018,29.63,29.65,0.13559322033898305,0.0006315789473684076,0,1,0
0,0.027760853426838684,0.0005481742452227703,0.026834087455077812,0.028210194504056162,0.027760840284382436,0.0005481739857078343,0.02683407475136817,0.02821018114887423,1.9100934957741266e-05,3.771728643394742e-07,1.8463270968256787e-05,1.941010537688534e-05,1.9100934957741266e-05,3.771728643394742e-07,1.8463270968256787e-05,1.941010537688534e-05,1.139217687074829,16.13908062863701,-38.74,29.61,0.27952780762470253,0.0008762051926143441,0.2780097417198386,0.2807484629656749,5.697908390300751e-05,3.5355864212972726e-05,1.622421822971187e-05,0.00013433597298570643,1.8655947885643463e-07,6.341619937742806e-08,1.117686617601232e-07,3.2447843051298594e-07,-0.7645184900195959,0.00029008959977484426,-0.7649798893444892,-0.7640560774270988,0.6027851152065078,2.5404828255722585,-3.05328369140625,4.44183349609375,29.65666666666667,0.021081851067790244,29.63,29.69,0.13605442176870747,0.00016511867905071075,0,1,0
0,0.028514435858422043,0.00035101651094765604,0.027522140979566984,0.028898248028545334,0.028514422359207245,0.0003510163447705201,0.027522127950121197,0.02889823434762726,1.961943951484747e-05,2.4151791883395246e-07,1.8936688172571062e-05,1.9883522581199616e-05,1.961943951484747e-05,2.4151791883395246e-07,1.8936688172571062e-05,1.9883522581199616e-05,-0.27877966101694857,22.610380064173306,-70.86,39.64,0.27924281956460245,0.0011906737024046257,0.27629938446152913,0.2808937597024068,0.0001400831043521353,0.00022497690466375718,3.5576616993343492e-06,0.0006336773648769037,0.00037336323217172405,0.001393910028813431,1.09525320946555e-07,0.006239029880621143,-0.7639410909991401,0.00011240713676332883,-0.7642354386226714,-0.7638298748743053,0.20429644336179822,2.09905342373737,-3.01361083984375,3.86810302734375,29.657368421052627,0.009647527778855908,29.65,29.67,0.13559322033898305,-0.0004912280701755154,0,1,0
0,0.030265057056922465,0.0007754237011360416,0.028898248028545334,0.031650462126502035,0.03026504272893394,0.0007754233340373802,0.02889823434762726,0.03165044714263938,2.0823959460040162e-05,5.335325053721579e-07,1.9883522581199616e-05,2.177719139845672e-05,2.0823959460040162e-05,5.335325053721579e-07,1.9883522581199616e-05,2.177719139845672e-05,2.1888135593220333,21.67532169211717,-39.3,46.24,0.2804511654912636,0.0007620681404833853,0.27888075214751157,0.28163393923510194,0.002442775025607883,0.0012371322377372842,0.0005224411824366846,0.004264206985248969,0.0035499729983421505,0.00960001883110883,5.191020935463309e-07,0.0319845781059863,-0.7656859467509024,0.0009619047533690072,-0.7674176927381208,-0.7643282892159026,-0.4743542317607334,2.294421671069949,-3.05328369140625,4.04205322265625,29.66666666666667,0.0074535599250004645,29.65,29.67,0.13559322033898305,-0.000928792569659588,0,1,0
0,0.036368543437285024,0.0039046101891795624,0.029586301553034506,0.05022790728770975,0.03636852621980301,0.0039046083406712334,0.029586287546380288,0.050227883508971186,2.50234807994689e-05,2.6865782586766035e-06,2.035693978551389e-05,3.455945591494219e-05,2.50234807994689e-05,2.6865782586766035e-06,2.035693978551389e-05,3.455945591494219e-05,-2.314271186440679,23.71447327633308,-69.92,32.46,0.27782760753347424,0.002352429762989618,0.27457676397085806,0.2812802250434861,0.0022411262325491457,0.0011549970679106253,0.0007231827585052699,0.0042545323279733396,1.4853208878590594e-07,4.863104434378095e-08,1.0837504662436492e-07,3.1447472791101827e-07,-0.7695965244567051,0.0011405842875875918,-0.7713389437452287,-0.767653995363094,-0.30834163674056586,6.198103938402962,-11.64703369140625,8.23211669921875,29.664444444444452,0.008958064164777567,29.65,29.67,0.13559322033898305,0.0006811145510836979,0,1,0
0,0.033494632797581796,0.0033129250879274613,0.026834087455077812,0.04197126499383966,0.03349461694065776,0.0033129235195328392,0.02683407475136817,0.04197124512393483,2.3046078327026955e-05,2.2794676248387166e-06,1.8463270968256787e-05,2.8878449463170872e-05,2.3046078327026955e-05,2.2794676248387166e-06,1.8463270968256787e-05,2.8878449463170872e-05,2.363775510204083,20.401605604847052,-39.03,43.83,0.2761519196956024,0.002552832916834489,0.27285446219970005,0.2813609156737506,0.0019473002056709036,0.002411862690524874,0.00016214217186919866,0.006349129808327282,0.0036007733602676025,0.01338107156944735,1.5354573332237997e-07,0.05978270503310837,-0.7720928036063328,0.0002416525672471316,-0.7723390312339836,-0.7714957910064173,0.15140977016715115,4.0087530980490245,-10.09979248046875,5.767822265625,29.674210526315804,0.008153649149910177,29.67,29.69,0.16326530612244897,0.001052631578947346,0,1,0
0,0.031343627446662276,0.006527097878204483,0.01926549868569689,0.056420389008112325,0.031343612608060324,0.006527094788166245,0.01926548956508484,0.05642036229774846,2.1566072915451695e-05,4.4909884475620224e-06,1.3255681720799745e-05,3.882021075377068e-05,2.1566072915451695e-05,4.4909884475620224e-06,1.3255681720799745e-05,3.882021075377068e-05,-2.8365423728813552,48.258656400031896,-81.14,171.38,0.2805837492678067,0.0032403482291554456,0.27367961908732785,0.28496174211694975,0.007898540889021722,0.002494659020339787,0.004091303143869993,0.011532003838937792,0.00593323517538372,0.023083972921886464,1.447426800360585e-07,0.10103009877348182,-0.7701487349006677,0.001192210404824312,-0.7718141238589037,-0.7679494167753039,1.1733170810265088,1.8895989637274064,-1.68304443359375,3.99017333984375,29.678888888888896,0.013698697784375212,29.67,29.71,0.18983050847457628,0.0008255933952528204,0,1,0
0,0.028832719121451158,0.0011331007288954496,0.02476992688161029,0.029586301553034506,0.028832705471555503,0.0011331001924664566,0.02476991515510908,0.029586287546380288,1.9838435228407786e-05,7.796332119342188e-07,1.7043019355313955e-05,2.035693978551389e-05,1.9838435228407786e-05,7.796332119342188e-07,1.7043019355313955e-05,2.035693978551389e-05,-1.4619322033898299,11.948016330449658,-23.92,23.74,0.28115457286366174,0.0014217290812179176,0.27898735088244464,0.28403406546397303,0.002572795886486327,0.001617705629469041,0.0006889435970705417,0.006039244276340655,2.056354571185923e-07,2.4208349064584337e-07,9.234600194599207e-08,1.151286430245424e-06,-0.7641501596057262,0.00223709583820388,-0.7676220909872833,-0.7603139562003854,-0.12624944114211772,1.426342607044363,-2.07672119140625,3.14788818359375,29.683684210526323,0.013062814364200624,29.67,29.71,0.16271186440677965,0.0003859649122806935,0,1,0
0,0.03375646379267494,0.0024746494489043197,0.027522140979566984,0.03715489032241543,0.03375644781179558,0.002474648277363527,0.027522127950121197,0.037154872732663616,2.322623189544568e-05,1.7026896630286542e-06,1.8936688172571062e-05,2.5564529032970932e-05,2.322623189544568e-05,1.7026896630286542e-06,1.8936688172571062e-05,2.5564529032970932e-05,1.9712881355932201,30.93226205159982,-68.71,119.52,0.286147484750786,0.0038343672469002108,0.2806595810252152,0.29125692344965054,0.003942676377557073,0.0028992304052360596,0.00036887098761762135,0.008141217303578217,0.005693740943004587,0.013626577024054473,1.4892981133052263e-07,0.04462642169068256,-0.7561474527575941,0.0021922794853115306,-0.7598587444908835,-0.7527355663092402,0.06997264988704235,1.6943084872664789,-2.21405029296875,3.63616943359375,29.69111111111111,0.012422599874998568,29.67,29.71,0.10847457627118644,-0.000928792569659423,0,1,0
0,0.03392993196613624,0.0010208724053330264,0.029586301553034506,0.03715489032241543,0.03392991590313413,0.0010208719220348085,0.029586287546380288,0.037154872732663616,2.334558717057274e-05,7.024141914732043e-07,2.035693978551389e-05,2.5564529032970932e-05,2.334558717057274e-05,7.024141914732043e-07,2.035693978551389e-05,2.5564529032970932e-05,-0.353877551020408,3.41916565965083,-10.05,7.43,0.29126587336819043,0.0007597224209408745,0.2901121673217626,0.2928122127080284,0.0052845328084135884,0.0015804043216257919,0.0023459768742568436,0.007161592303119178,0.0020570571809877592,0.008710943457759074,7.567503663985509e-08,0.03901444956935213,-0.7504383177752988,0.0009249382650315518,-0.7523992361099334,-0.7495177939374068,-0.2485763194949128,1.6522300885528072,-2.35748291015625,3.22113037109375,29.688947368421054,0.0137246366425316,29.67,29.71,0.05442176870748299,0.0008771929824561216,0,1,0
0,0.025935405300642957,0.0021151918856696346,0.020641605734675238,0.030274355077523685,0.025935393022384616,0.0021151908843021166,0.020641595962590898,0.03027434074513332,1.784493012996872e-05,1.4553638539173207e-06,1.4202516129428297e-05,2.083035698982817e-05,1.784493012996872e-05,1.4553638539173207e-06,1.4202516129428297e-05,2.083035698982817e-05,0.12945762711864434,32.140049018199605,-139.03,55.75,0.28660574311165,0.0011421890113830241,0.283989324869603,0.288687282443085,0.001031979287252937,0.0005237166184139482,0.00036607752294146566,0.002078727562659179,0.0013078306522416815,0.0045261541622710205,7.860687124827681e-08,0.01959678998583371,-0.7509724767280228,0.0010495478135363412,-0.7529531399210123,-0.7496093541180564,-0.6399307937456369,2.318036702907361,-3.12957763671875,4.24652099609375,29.685555555555563,0.015713484026367387,29.67,29.71,0.10847457627118644,-0.002476780185758461,0,1,0
0,0.025346404158885047,0.0016431999085688687,0.020641605734675238,0.027522140979566984,0.025346392159469728,0.0016431991306503175,0.020641595962590898,0.027522127950121197,1.7439666202171852e-05,1.1306084180321486e-06,1.4202516129428297e-05,1.8936688172571062e-05,1.7439666202171852e-05,1.1306084180321486e-06,1.4202516129428297e-05,1.8936688172571062e-05,-0.9130169491525427,16.923710897998546,-39.6,28.38,0.2858071184402966,0.00126357993786234,0.283808516675765,0.28773695822969,0.0020188316731795256,0.00034426873953045093,0.001332039251377764,0.0024197578501460363,0.0010215399909186292,0.004204853375296084,5.711466469562887e-07,0.018358592364762682,-0.7559403772336002,0.001652190341621945,-0.7586105634440766,-0.7532501652289046,0.5667042295791479,3.025633017554821,-3.74908447265625,5.5419921875,29.692222222222224,0.014740554623801463,29.67,29.71,0.13559322033898305,0.0013209494324045125,0,1,0
0,0.028261681502487306,0.008954983138476152,0.004816374671424223,0.05229206786117727,0.028261668122930583,0.008954978899036079,0.00481637239127121,0.05229204310523028,1.9445531154078922e-05,6.16150187624766e-06,3.313920430199936e-06,3.5979707527885024e-05,1.9445531154078922e-05,6.16150187624766e-06,3.313920430199936e-06,3.5979707527885024e-05,8.960406779661016,45.036778407497735,-60.56,166.71,0.2827820553163637,0.004098944980990784,0.27376371532427946,0.29032531436844405,0.002098320740687624,0.0013688983803192083,0.0008347858522708702,0.006063526143059363,0.0039023867880032567,0.012646205153543498,9.035752762676097e-08,0.05629074211588449,-0.7611744742986449,0.001304305434319313,-0.7631903598240579,-0.7589005315545742,0.17408886855056802,3.412940522975904,-4.66461181640625,5.54046630859375,29.71526315789474,0.008806947647726925,29.71,29.73,0.10847457627118644,0.0012280701754385703,0,1,0
0,0.04049686458422001,0.005041468926702364,0.013761070489783492,0.05229206786117727,0.0404968454123212,0.005041466539985936,0.013761063975060599,0.05229204310523028,2.7863984025354558e-05,3.4687971792436933e-06,9.468344086285531e-06,3.5979707527885024e-05,2.7863984025354558e-05,3.4687971792436933e-06,9.468344086285531e-06,3.5979707527885024e-05,-6.345680272108842,110.15460960420239,-304.8,164.83,0.2805581357562748,0.003432048781941801,0.2746667555794028,0.2870275110434184,0.003636198165528725,0.0017181229599962547,0.001488787895220217,0.006365403280754286,0.0005947435643834264,0.0024351047294082343,6.154596317309302e-08,0.010634767979290166,-0.7648444240797762,0.0008485770143525272,-0.766169951699471,-0.7633841889707417,-0.30308243062892565,2.9432280937275976,-5.2032470703125,4.40521240234375,29.72888888888889,0.022580446036556828,29.69,29.75,0.10884353741496598,0.0015892672858616795,0,1,0
0,0.034546795543777424,0.008792215114384671,0.013073016965294318,0.053668174910155624,0.034546779188741626,0.008792210952001722,0.01307301077630757,0.05366814950273634,2.3770021927428316e-05,6.049508869636211e-06,8.994926881971256e-06,3.6926541936513574e-05,2.3770021927428316e-05,6.049508869636211e-06,8.994926881971256e-06,3.6926541936513574e-05,-1.9679322033898339,60.63907331920856,-160.77,123.58,0.2820325280167571,0.002533875978116262,0.2784641671540975,0.2891219000890495,0.006771722714569181,0.004149468756591234,0.0018141565092222923,0.016608148654515466,0.01196358585432413,0.021178654872741825,8.101755477191164e-07,0.05986712520460809,-0.767368548374546,0.00057420435735102,-0.7681424253150329,-0.766310294048917,0.5695186832702486,2.958315844619576,-4.42962646484375,5.12542724609375,29.754210526315784,0.015326547135327079,29.73,29.77,0.05423728813559322,0.000771929824561387,0,1,0
0,0.024746523700505223,0.013047597328502693,0.0,0.04816374671424223,0.024456312676765863,0.01358374987042046,-0.006880531987530299,0.0481637239127121,1.6827244166953037e-05,9.346342549403849e-06,-4.7341720431427655e-06,3.313920430199936e-05,1.6827244166953037e-05,9.346342549403849e-06,-4.7341720431427655e-06,3.313920430199936e-05,3.3499322033898293,53.55831611505489,-95.18,126.76,0.2830435131638751,0.0049011665949504415,0.2754887909969883,0.29286044542909445,0.009610061438871694,0.004574520933616387,0.0032755733278852055,0.01696069943128922,0.0003601510899880324,0.0014828970404634513,7.662122228357937e-08,0.006474290709842234,-0.7678064175133005,0.0004485860660032083,-0.7682138949583127,-0.7667865129844965,-0.5770904323235825,2.7028946130128273,-4.54254150390625,4.78668212890625,29.790000000000006,0.016329931618554172,29.75,29.81,0.08135593220338982,0.0011558307533539487,0,1,0
0,0.028475188091190453,0.0034342406182635917,0.019953552210186066,0.033026569175480386,0.028475174610556167,0.0034342389924361554,0.01995354276383787,0.03302655354014544,1.9592434975844235e-05,2.36293912402808e-06,1.372909892511402e-05,2.2724025807085277e-05,1.9592434975844235e-05,2.36293912402808e-06,1.372909892511402e-05,2.2724025807085277e-05,-2.237966101694919,24.12367789507419,-88.19,26.74,0.2817491351210914,0.002814764103506328,0.27659799860801476,0.2863996144930992,0.0035274356313756182,0.0013867258413124879,0.0013728519403047065,0.005078606477470002,0.003561235222957159,0.010876178699514566,1.435923509471304e-07,0.047618584353257255,-0.7634807506632839,0.0021170414641783993,-0.7665622020025233,-0.7597395959195439,0.03743893455334987,2.094173111500327,-2.69927978515625,4.29534912109375,29.824736842105256,0.01929505555770912,29.79,29.85,0.16271186440677965,0.0029473684210527184,0,1,0
0,0.026033698661284254,0.0009632107951517299,0.024081873357121114,0.027522140979566984,0.02603368633649221,0.0009632103391514892,0.02408186195635605,0.027522127950121197,1.791256115915655e-05,6.627399549251751e-07,1.656960215099968e-05,1.8936688172571062e-05,1.791256115915655e-05,6.627399549251751e-07,1.656960215099968e-05,1.8936688172571062e-05,0.18506802721088467,18.969686752067428,-32.74,52.25,0.2861334659906217,0.0011296957363612454,0.28370159992026733,0.28761445496866356,0.0022456223762413272,0.0012319401978629083,0.0006951691484542404,0.004601269909625559,2.1100566858477573e-07,8.670569008033144e-08,1.0586389048369838e-07,3.5554615704369574e-07,-0.7558150576231486,0.0019563775373978216,-0.7592830241476225,-0.7529997751179326,0.7420580085394696,2.7494034351954433,-3.021240234375,5.93719482421875,29.855555555555554,0.0160631469942242,29.83,29.87,0.05442176870748299,0.0006811145510835181,0,1,0
0,0.023061494660939822,0.0020763779197809,0.018577445161207715,0.026834087455077812,0.02306148374323936,0.0020763769367885725,0.018577436366331808,0.02683407475136817,1.5867527657526792e-05,1.4286577931743974e-06,1.2782264516485466e-05,1.8463270968256787e-05,1.5867527657526792e-05,1.4286577931743974e-06,1.2782264516485466e-05,1.8463270968256787e-05,-0.5183728813559322,32.498139713068376,-80.91,113.59,0.28716520778147736,0.003383499379724974,0.28293871891201483,0.2955019145055797,0.0031640638066341344,0.0022153085414197545,0.0003296699764348657,0.005874019905668313,0.004243156913137927,0.014437729448450901,1.3262066720157173e-07,0.06227971407496993,-0.7528926354028243,0.0006651966669445501,-0.7544825788187416,-0.7522707789563722,-1.7543583229910023,6.3410925711514246,-11.09161376953125,8.26568603515625,29.898888888888898,0.015234788000890887,29.87,29.91,0.16271186440677965,0.0025180598555211023,0,1,0
0,0.028289227679166383,0.008630009550265582,0.009632749342848445,0.05435622843464479,0.028289214286568817,0.00863000546467349,0.00963274478254242,0.054356202701489366,1.9464484380083605e-05,5.937902865224725e-06,6.627840860399872e-06,3.739995914082785e-05,1.9464484380083605e-05,5.937902865224725e-06,6.627840860399872e-06,3.739995914082785e-05,9.732847457627116,45.81608789342545,-96.95,145.12,0.28572603234676885,0.003507536236094795,0.27881820814760433,0.2932825567933997,0.003508846591312251,0.0015601614076118048,0.0014477741714396797,0.006463512482046964,0.0032763198045963255,0.013896944145687169,6.347321332422773e-08,0.06223606034664014,-0.7586885782236971,0.002406199933290187,-0.7625938682277704,-0.7548422238599054,0.9043099566665536,1.9927947796911243,-2.06451416015625,4.82330322265625,29.94157894736842,0.014960705687949046,29.91,29.97,0.05423728813559322,0.0019298245614034677,0,1,0
0,0.030667528520088957,0.006964739512877307,0.015825231063251018,0.041283211469350475,0.030667514001563603,0.006964736215652143,0.01582522357131969,0.041283191925181796,2.1100881106579186e-05,4.7921090316505345e-06,1.088859569922836e-05,2.8405032258856593e-05,2.1100881106579186e-05,4.7921090316505345e-06,1.088859569922836e-05,2.8405032258856593e-05,-7.2159523809523725,51.927352264568775,-154.53,85.72,0.2806629324256058,0.0024733776730191583,0.2763149920990668,0.2858815485567176,0.0044497012045292645,0.0010842660275218483,0.0025185529034257156,0.006144320498724575,0.0025179846260898146,0.010283293420892384,6.0860000455909e-08,0.044915888416730936,-0.7648748838803,0.0008382757527045546,-0.7656392617007182,-0.7629754696839413,0.18712036662894502,1.8773672641028465,-2.54058837890625,3.753662109375,29.992222222222225,0.011331154474651632,29.97,30.01,0.027210884353741496,0.00181630546955641,0,1,0
0,0.03624216625931747,0.0008308096330008966,0.032338515650991204,0.037842943846904606,0.036242149101664706,0.0008308092396816019,0.03233850034139241,0.03784292593141665,2.4936526619084576e-05,5.716409549164991e-07,2.2250608602771e-05,2.6037946237285214e-05,2.4936526619084576e-05,5.716409549164991e-07,2.2250608602771e-05,2.6037946237285214e-05,-1.9999661016949157,18.65548170447414,-39.25,32.83,0.2824517386722104,0.0009161546105312797,0.28087190572929543,0.2842312467972555,0.0028658118192201034,0.0009719257000611641,0.0011817030905270829,0.004369316190627926,0.0009220880553431453,0.003906977803870689,1.669198727988208e-07,0.017497989250856993,-0.7626960615382783,0.0018204570963130963,-0.7652297631391128,-0.7593885846239773,0.7895169127963613,2.1152710600276543,-2.11029052734375,4.45404052734375,30.06473684210526,0.023253391615130577,30.03,30.09,0.13559322033898305,0.004070175438596404,0,1,0
0,0.032319919609788764,0.00032926022630124055,0.031650462126502035,0.03371462269996956,0.032319904308993744,0.0003292600704238961,0.03165044714263938,0.03371460673889847,2.223781354319499e-05,2.2654844467680973e-07,2.177719139845672e-05,2.3197443011399553e-05,2.223781354319499e-05,2.2654844467680973e-07,2.177719139845672e-05,2.3197443011399553e-05,-0.384203389830509,14.813418606320765,-34.59,23.0,0.2846954805006531,0.0016179652668203098,0.2822498144264588,0.2875915025595343,0.00044607577033038844,0.0002759606133199338,0.00012674422963289818,0.001046627661141147,3.224848651629557e-07,1.0492566076455069e-07,1.8829677755167681e-07,5.074878185974338e-07,-0.755456988730922,0.002053302633627936,-0.758960141881262,-0.7523164514636183,0.09942594759589281,1.8981297644898103,-2.496337890625,3.43780517578125,30.08666666666666,0.009999999999999787,30.07,30.11,0.13559322033898305,-0.0006398348813209359,0,1,0
0,0.0305692351594476,0.0016408417400623056,0.026834087455077812,0.034402676224458736,0.030569220687456045,0.0016408409632601446,0.02683407475136817,0.0344026599376515,2.1033250077391395e-05,1.1289858734161445e-06,1.8463270968256787e-05,2.367086021571383e-05,2.1033250077391395e-05,1.1289858734161445e-06,1.8463270968256787e-05,2.367086021571383e-05,-0.6974915254237294,18.673036242698046,-47.09,45.29,0.28785867717529956,0.0015057918331370381,0.28514010716325233,0.2909486068617815,4.7431624645877754e-05,2.94257349070377e-05,1.3542373915973666e-05,0.00011187269589969802,1.7976306889061713e-07,4.4963665003475066e-08,1.0810756184465075e-07,2.518279108006203e-07,-0.7500440130963373,0.0010906343013405277,-0.7520205092590119,-0.7484304266148661,-0.20067509086909519,2.588343828789957,-3.28521728515625,4.78973388671875,30.117777777777786,0.009749960430435484,30.11,30.13,0.13559322033898305,0.0015892672858616795,0,1,0
0,0.02882803848523004,0.0005772573829265094,0.028210194504056162,0.030274355077523685,0.028828024837550422,0.0005772571096431283,0.02821018114887423,0.03027434074513332,1.983521470320837e-05,3.971836007928823e-07,1.941010537688534e-05,2.083035698982817e-05,1.983521470320837e-05,3.971836007928823e-07,1.941010537688534e-05,2.083035698982817e-05,0.5809183673469392,17.161933894725898,-43.85,27.51,0.2890118958463909,0.001749606827092862,0.2854262239537696,0.29151564747474945,5.114539944827193e-06,3.0158835765427503e-06,1.8529527827873484e-06,1.1969567835093113e-05,4.4284039041237365e-07,2.799289370949958e-07,1.283974086455249e-07,1.1519159125945435e-06,-0.7470242940171132,0.0007561537045075153,-0.7482785809013263,-0.7457574256598513,-0.34339467129966084,3.0230805062223127,-3.50799560546875,5.85784912109375,30.111052631578954,0.004465937565388624,30.11,30.13,0.13605442176870747,-0.0003157894736842038,0,1,0
0,0.025843848261049466,0.0023129608854594065,0.020641605734675238,0.028898248028545334,0.02584383602613576,0.0023129597904647087,0.020641595962590898,0.02889823434762726,1.7781934045831502e-05,1.5914393824163815e-06,1.4202516129428297e-05,1.9883522581199616e-05,1.7781934045831502e-05,1.5914393824163815e-06,1.4202516129428297e-05,1.9883522581199616e-05,-0.4060338983050841,19.483642897087385,-37.22,55.83,0.2910788049958056,0.0006832559607174607,0.2897967252689889,0.2920381128860722,1.0047431966342863e-06,3.1568082109869876e-07,6.279889337428133e-07,1.705885574079827e-06,3.5497114823996183e-07,8.17894526954893e-08,2.465275703271368e-07,5.083642620589952e-07,-0.7442325520276942,0.000827583986510322,-0.7456018300180711,-0.742924146004657,0.3344747393611348,2.2480775622220506,-2.99835205078125,4.06646728515625,30.114444444444455,0.008314794192830804,30.11,30.13,0.13559322033898305,0.0011558307533539487,0,1,0
0,0.024156763536657324,0.0024686174195461025,0.017201338112229368,0.028210194504056162,0.02415675210043804,0.0024686162508609755,0.01720132996882575,0.02821018114887423,1.6621130554190338e-05,1.6985393078986053e-06,1.1835430107856916e-05,1.941010537688534e-05,1.6621130554190338e-05,1.6985393078986053e-06,1.1835430107856916e-05,1.941010537688534e-05,-0.06522033898305045,29.62473606608755,-68.81,51.59,0.2923084903048265,0.0008437305748794519,0.2908868524018503,0.29413963326242853,8.241547010719283e-05,0.00015819918887922634,4.213731768677678e-07,0.0004748606901376498,0.0002742376041946874,0.0011591653929903752,2.0727655134989647e-07,0.00519215616338176,-0.7420957177919907,0.0003080327450369895,-0.7427927201146146,-0.7418072596211428,0.6215003228956654,3.007415455241287,-3.43780517578125,6.17828369140625,30.134210526315787,0.00815364914991018,30.13,30.15,0.13559322033898305,-0.001052631578947346,0,1,0
0,0.022496560844615637,0.004594527761038301,0.015825231063251018,0.029586301553034506,0.02249655019436426,0.004594525585911356,0.01582522357131969,0.029586287546380288,1.547882332214042e-05,3.1612780261389505e-06,1.088859569922836e-05,2.035693978551389e-05,1.547882332214042e-05,3.1612780261389505e-06,1.088859569922836e-05,2.035693978551389e-05,-1.6492881355932218,15.826119490807496,-30.49,54.6,0.29230343482807264,0.002670087064386856,0.28849242677959014,0.2961709167048708,0.0015827477881429346,0.0005745818927722506,0.0007338383999290859,0.002394980258920771,0.0012327677515525338,0.005079686028147308,6.818639844419216e-08,0.02217684753994786,-0.7433225832020295,0.000993944895333267,-0.7451845980415477,-0.7419974260631257,-0.7384851487053502,3.366339516958698,-5.27496337890625,5.97076416015625,30.14555555555555,0.0170692127730424,30.13,30.17,0.13559322033898305,0.0010319917440660292,0,1,0
0,0.026894935725951006,0.0007652804436594933,0.024081873357121114,0.028210194504056162,0.026894922993434725,0.000765280081362821,0.02408186195635605,0.02821018114887423,1.850513779584921e-05,5.265534079236695e-07,1.656960215099968e-05,1.941010537688534e-05,1.850513779584921e-05,5.265534079236695e-07,1.656960215099968e-05,1.941010537688534e-05,1.5765646258503396,26.366727862937495,-59.44,50.07,0.2912539839363905,0.0018057404522366727,0.28798934907056917,0.2935638879282973,0.004846312222769987,0.0031227558842381988,0.0004496827968922491,0.009824015330328749,0.008092886593273538,0.017026531515887604,2.1685980351737744e-07,0.05723805152969738,-0.7482450152007852,0.001737220201822229,-0.7511283589305492,-0.7454634926973758,0.12241381268168605,2.7315469181888097,-3.37677001953125,4.79888916015625,30.17842105263159,0.009874559494364905,30.17,30.19,0.16326530612244897,0.0009824561403508562,0,1,0
0,0.015109093721435747,0.010179534774735476,0.0,0.03990710442037213,0.01453804921991095,0.010979638060125044,-0.00550442559002424,0.03990708552767574,1.0002951269388729e-05,7.55457508841955e-06,-3.7873376345142126e-06,2.745819785022804e-05,1.0002951269388729e-05,7.55457508841955e-06,-3.7873376345142126e-06,2.745819785022804e-05,4.062508474576271,51.693245086818266,-161.04,169.07,0.28883553650167415,0.0035124954343059814,0.2819519120400635,0.2933004816155674,0.0055363179116929145,0.0027633921798209766,0.001823550685554282,0.010083757288653652,2.3715226465821174e-07,2.0648005731838788e-07,1.1589601575656694e-07,9.927658569663933e-07,-0.7538661595661923,0.0013953656526799552,-0.7559916801830124,-0.7514451869844309,0.3007387545328498,2.108034620190716,-3.02734375,4.18243408203125,30.20555555555556,0.008314794192830804,30.19,30.21,0.13559322033898305,-0.0008255933952528204,0,1,0
0,0.012794076347258163,0.0005173577749130119,0.011696909916315968,0.013761070489783492,0.012794070290326589,0.0005173575299871141,0.01169690437880151,0.013761063975060599,8.80300098833033e-06,3.5596950340660125e-07,8.048092473342702e-06,9.468344086285531e-06,8.80300098833033e-06,3.5596950340660125e-07,8.048092473342702e-06,9.468344086285531e-06,-2.986711864406779,37.2070764506125,-119.66,65.45,0.28477003547150903,0.001021983391017383,0.28232421532250107,0.2864677947844089,0.002062192209116329,0.0004806223722965123,0.0011947550923089962,0.00260957127683902,0.0016087460445776375,0.0038752147517816375,2.514856363988738e-07,0.014713647983008785,-0.7573714101250393,0.0005868367535640436,-0.758049692746836,-0.7561930994805041,-0.7264499741239723,4.797492341574002,-8.2763671875,5.44281005859375,30.205555555555552,0.008314794192830802,30.19,30.21,0.05423728813559322,0.00016511867905056406,0,1,0
0,0.014519333557587876,0.0010238082620096453,0.011696909916315968,0.017201338112229368,0.014519326683890452,0.0010238077773215433,0.01169690437880151,0.01720132996882575,9.990069168591091e-06,7.044342160943173e-07,8.048092473342702e-06,1.1835430107856916e-05,9.990069168591091e-06,7.044342160943173e-07,8.048092473342702e-06,1.1835430107856916e-05,-2.2974576271186438,35.82721152142247,-85.46,85.87,0.2839706107143129,0.0012286835567093337,0.281463793994678,0.286251729012119,0.0006791238525270965,0.00042759235013305007,0.00018183813295613073,0.0015970594171260623,2.6709930211313164e-07,6.706476310186067e-08,1.4369239306017897e-07,4.227955776548928e-07,-0.757244048387962,0.000726298963206767,-0.7580525715058876,-0.7557770191656067,0.02339980738334561,2.276302815531664,-4.547119140625,4.45404052734375,30.234210526315792,0.008153649149910177,30.23,30.25,0.08135593220338982,0.0006315789473684076,0,1,0
0,0.01433678874496829,0.0006859008853897596,0.011696909916315968,0.015825231063251018,0.014336781957690696,0.000685900560672711,0.01169690437880151,0.01582522357131969,9.864468685813832e-06,4.719360747973554e-07,8.048092473342702e-06,1.088859569922836e-05,9.864468685813832e-06,4.719360747973554e-07,8.048092473342702e-06,1.088859569922836e-05,3.649047619047617,38.2909068144279,-70.52,89.06,0.2853497103431881,0.0015418040253552582,0.28216001451567413,0.288204068678764,6.797350700022783e-05,4.227675491649697e-05,1.930737972669479e-05,0.00016051815902477014,1.3859847445552342e-07,3.954060825212286e-08,8.722162978696581e-08,2.0533742410534187e-07,-0.7535823566271141,0.0011724218321042883,-0.7555503711863456,-0.7517778882589841,0.5900290704542591,2.2079864928812505,-2.5299072265625,4.55169677734375,30.240000000000002,0.009999999999999787,30.23,30.25,0.10884353741496598,0.0010113519091847051,0,1,0
0,0.013970275953310579,0.0004708830126643314,0.012384963440805145,0.015137177538761842,0.013970269339546298,0.0004708827897403703,0.01238495757755454,0.01513717037256666,9.612288506516241e-06,3.239924097186131e-07,8.521509677656977e-06,1.0415178494914085e-05,9.612288506516241e-06,3.239924097186131e-07,8.521509677656977e-06,1.0415178494914085e-05,-2.773322033898305,26.083045116002328,-70.95,40.2,0.286787817766897,0.0009085548908143986,0.2853967434069599,0.2883442375783748,7.206060933907823e-06,4.373197572305474e-06,2.45494279720222e-06,1.7062981803521146e-05,6.158690584789956e-07,4.4642893463709414e-07,2.1952813316727764e-07,1.788048393411393e-06,-0.7511653422066109,0.00027060403151261703,-0.7517221228284796,-0.7508558636024268,0.6156386571841559,2.372911907089259,-3.03802490234375,4.13360595703125,30.249999999999993,0.012977713690460727,30.23,30.27,0.10847457627118644,0.0016842105263157536,0,1,0
0,0.014210411567000893,0.0012002341451453366,0.009632749342848445,0.021329659259164413,0.014210404839552365,0.0012002335769342467,0.00963274478254242,0.02132964916134393,9.777514505429555e-06,8.258245518603997e-07,6.627840860399872e-06,1.4675933333742575e-05,9.777514505429555e-06,8.258245518603997e-07,6.627840860399872e-06,1.4675933333742575e-05,-0.03603389830508578,22.895636062593145,-54.43,36.17,0.2867595416993533,0.0013086837322923495,0.284647959336344,0.2888373560462372,0.0017049938957913932,0.0010060198089594076,2.234226831754893e-06,0.0028725114318985234,0.0021581242925246542,0.0061256869222119465,6.100279926063434e-07,0.02120550041379486,-0.753967702533128,0.0013264815915757775,-0.7561691489975552,-0.7519091099523014,-0.2938559659696905,2.434506851712756,-3.70941162109375,4.302978515625,30.25888888888888,0.009938079899998852,30.25,30.27,0.13559322033898305,-0.0003302373581011281,0,1,0
0,0.016201800897599813,0.002222844436539433,0.004816374671424223,0.028210194504056162,0.016201793227393988,0.002222843384207383,0.00481637239127121,0.02821018114887423,1.1147695655643606e-05,1.5294345008308994e-06,3.313920430199936e-06,1.941010537688534e-05,1.1147695655643606e-05,1.5294345008308994e-06,3.313920430199936e-06,1.941010537688534e-05,-1.4118983050847476,47.26611128913016,-109.35,88.56,0.28437773480209616,0.0011057419072221005,0.2823989944374763,0.2861734234619852,0.0011130991609172149,0.0005986918303670463,0.0003343199423917788,0.0021917634329971705,0.00015510795653390352,0.000564614950074646,8.45593542417658e-08,0.0025166024780244184,-0.757777084983332,0.0006150070488611252,-0.7583595099201342,-0.7564128575163358,-0.5415720028557789,3.039783700423493,-4.15802001953125,5.1605224609375,30.25947368421052,0.00998613997947888,30.25,30.27,0.13559322033898305,0.0004561403508771832,0,1,0
0,0.0164945620428561,0.0022741631062346552,0.011696909916315968,0.021329659259164413,0.016494554234052234,0.0022741620296074824,0.01169690437880151,0.02132964916134393,1.134913080274499e-05,1.5647444589541082e-06,8.048092473342702e-06,1.4675933333742575e-05,1.134913080274499e-05,1.5647444589541082e-06,8.048092473342702e-06,1.4675933333742575e-05,-1.2689115646258529,35.41218410616675,-74.66,63.01,0.28336195397649466,0.0017652742086136976,0.280172732981985,0.286745240705529,0.00012517929949293292,7.78024755072662e-05,3.5532182424570876e-05,0.00029530738151394166,1.850215330961467e-07,6.954935457025855e-08,8.844612648783307e-08,3.2965617376081065e-07,-0.7563581872245819,0.0011886926715508513,-0.7580500331920532,-0.7542569113972267,0.8825434644523981,3.013106557192858,-4.33807373046875,4.89044189453125,30.286666666666658,0.015275252316519142,30.27,30.31,0.13605442176870747,0.0002683178534571666,0,1,0
0,0.014322746836305226,0.0002664264844276207,0.013761070489783492,0.014449124014272667,0.014322740055675326,0.00026642635829682884,0.013761063975060599,0.01444911717381363,9.854807110215588e-06,1.8331550805825412e-07,9.468344086285531e-06,9.941761290599808e-06,9.854807110215588e-06,1.8331550805825412e-07,9.468344086285531e-06,9.941761290599808e-06,3.93010169491525,28.903370860650536,-64.19,67.54,0.2863574470991381,0.0013591304121507923,0.28370333724071745,0.2886839190229308,1.3448719467680593e-05,8.190591374735016e-06,4.035912780744256e-06,3.138629882706482e-05,2.718239678319295e-07,7.78052806829901e-08,1.7448340857903737e-07,4.420363514753985e-07,-0.7521258574014896,0.0009897503120900439,-0.7539881320430831,-0.750874276776211,-0.7426281726918825,2.9275914055359116,-3.93218994140625,5.12847900390625,30.299999999999997,0.009999999999999787,30.29,30.31,0.13559322033898305,-0.00030959752321980765,0,1,0
0,0.014216673499242511,0.00032543072104217755,0.013761070489783492,0.014449124014272667,0.014216666768829484,0.00032543056697778496,0.013761063975060599,0.01444911717381363,9.781823045899065e-06,2.2391354258107676e-07,9.468344086285531e-06,9.941761290599808e-06,9.781823045899065e-06,2.2391354258107676e-07,9.468344086285531e-06,9.941761290599808e-06,0.08199999999999945,25.67736730261146,-59.16,29.99,0.287293480270474,0.0006057002387072071,0.2861041445788889,0.2886461951420146,0.0006925097168581749,0.0006603846167905538,1.9017031395548722e-06,0.0015496433508574773,0.0008889860195906623,0.0037641651569324166,3.414997660087306e-07,0.01685898400923467,-0.7516217257333544,0.0006793181139017819,-0.7529194770148486,-0.7508443961565976,0.5041420607649659,2.678105185126573,-3.253173828125,4.75311279296875,30.301578947368416,0.009874559494364903,30.29,30.31,0.13559322033898305,0.0007017543859648973,0,1,0
0,0.014013824845718267,0.00033169829813689875,0.013761070489783492,0.014449124014272667,0.014013818211337197,0.0003316981411053289,0.013761063975060599,0.01444911717381363,9.642252447054053e-06,2.2822596700795595e-07,9.468344086285531e-06,9.941761290599808e-06,9.642252447054053e-06,2.2822596700795595e-07,9.468344086285531e-06,9.941761290599808e-06,-1.3052721088435382,25.808594579667794,-60.7,30.51,0.28659388657572304,0.0011623931293747562,0.2844666695789269,0.2884736175061558,0.0015952123712757353,0.0004964439584750787,0.0008875619875398868,0.002410589044019835,0.0016855242761543352,0.004897047712739574,2.690517224776534e-07,0.01858058682958681,-0.7540355425302814,0.00043629698350416675,-0.7544583016382713,-0.7530883964405037,0.5493206658375175,2.9843211877587317,-4.08172607421875,4.83551025390625,30.29222222222222,0.014740554623801463,30.27,30.31,0.13605442176870747,0.0,0,1,0
0,0.013831280033098706,0.0003080697903687028,0.013073016965294318,0.014449124014272667,0.013831273485137394,0.00030806964452326745,0.01307301077630757,0.01444911717381363,9.516651964276804e-06,2.1196830435294277e-07,8.994926881971256e-06,9.941761290599808e-06,9.516651964276804e-06,2.1196830435294277e-07,8.994926881971256e-06,9.941761290599808e-06,1.8836271186440692,26.565747847715816,-60.43,33.46,0.28728309169654187,0.0012214028965122994,0.2847380256262003,0.2891248526270668,0.0009278212117915602,0.0005567857480166091,0.0002573993574801724,0.0020605467912059505,1.2349079949022131e-07,4.810668647595453e-08,6.81991849478189e-08,2.0930693934995137e-07,-0.7519144403188849,0.0015943154220601453,-0.7541827510702307,-0.7492237580092739,-0.33350582454103983,2.6351778003646418,-3.5125732421875,4.78057861328125,30.299473684210522,0.011909166841036337,30.27,30.31,0.13559322033898305,-0.0013333333333333049,0,1,0
0,0.01369598434557505,0.00020136172613012442,0.013073016965294318,0.013761070489783492,0.013695977861664993,0.0002013616308020867,0.01307301077630757,0.013761063975060599,9.423561377769324e-06,1.385475141795025e-07,8.994926881971256e-06,9.468344086285531e-06,9.423561377769324e-06,1.385475141795025e-07,8.994926881971256e-06,9.468344086285531e-06,-2.1668135593220335,28.047327206097854,-68.72,35.2,0.2874394301720515,0.0013501265593857752,0.2843136582801592,0.2888568439842892,0.00016053544781241067,8.053358305385187e-05,5.772463262324966e-05,0.00030109551276895217,0.00017412809388959254,0.0006693697531719909,6.768157639804734e-08,0.0029297306798606202,-0.7488432513905144,0.0008480023441336772,-0.7510703670985791,-0.7480741807801528,-0.42560422342828885,2.4502842303360413,-3.54461669921875,4.5074462890625,30.286666666666672,0.007453559924999142,30.27,30.29,0.10847457627118644,0.000928792569659423,0,1,0
0,0.013737667308678408,0.00018675679867167656,0.013073016965294318,0.014449124014272667,0.013737660805034942,0.000186756710257858,0.01307301077630757,0.01444911717381363,9.452241460288457e-06,1.2849855188151188e-07,8.994926881971256e-06,9.941761290599808e-06,9.452241460288457e-06,1.2849855188151188e-07,8.994926881971256e-06,9.941761290599808e-06,1.3693559322033875,24.136288522740468,-56.57,30.8,0.2877433961809461,0.0010761754202008819,0.2859031638841631,0.2897615066633506,0.011650931944821166,0.00873096813633142,0.0005704451367185174,0.027488712079068577,0.020798043802761877,0.03544943732822951,3.3386956638514764e-06,0.10850660189963816,-0.7622081821832853,0.007557934139648656,-0.7760141392334172,-0.7517545113125967,0.7107641472788357,2.840938019947705,-3.69110107421875,5.267333984375,30.29111111111111,0.004581228472908414,30.29,30.31,0.10847457627118644,0.0003508771929824487,0,1,0
0,0.013204074779482718,0.002183696138875425,0.0,0.015137177538761842,0.013194707260440725,0.0022395647629034387,-0.00068805319875303,0.01513717037256666,9.078660537156093e-06,1.5409396989302823e-06,-4.734172043142766e-07,1.0415178494914085e-05,9.078660537156093e-06,1.5409396989302823e-06,-4.734172043142766e-07,1.0415178494914085e-05,-1.8329931972789104,22.566151309390815,-49.26,28.08,0.28815871693899986,0.0008891545541099846,0.28694441432420104,0.28986091295523037,0.0450548612800442,0.010237771842634687,0.02751832620563265,0.059584636472783295,0.05054554768441371,0.0561152831484304,2.1577461647437346e-05,0.18525959591914676,-0.7948163213987649,0.009837091029899186,-0.8097165658099117,-0.7779473664145108,0.012233053991036821,2.658305646640777,-3.86199951171875,5.00946044921875,30.301578947368423,0.009874559494364905,30.29,30.31,0.13605442176870747,-0.001543859649122774,0,1,0
0,0.012440751564412367,0.004122516273658287,0.0006880535244891746,0.01926549868569689,0.00534635931463503,0.011965939969666118,-0.01651327677007272,0.01926548956508484,3.67857962811769e-06,8.233203272215509e-06,-1.1362012903542639e-05,1.3255681720799745e-05,3.67857962811769e-06,8.233203272215509e-06,-1.1362012903542639e-05,1.3255681720799745e-05,1.1497627118644067,49.165014241505354,-132.41,188.86,0.31455015911697126,0.026371838218074345,0.2861367630903261,0.3613952363876262,0.11311225887856485,0.037886531683226046,0.06055351578684068,0.16854163590254004,0.09071538850094105,0.3130154816668157,2.78292797695201e-08,1.369801270854182,-0.8145327345954312,0.001657225864622073,-0.8164052472364768,-0.8109163517971028,-0.09076304588116661,2.7170295444504466,-3.29742431640625,5.01251220703125,30.296666666666663,0.009428090415820432,30.29,30.31,0.13559322033898305,0.0014860681114550768,0,1,0
0,0.013293006867682014,0.004432283235960433,0.0006880535244891746,0.028898248028545334,0.013293000574548335,0.004432281137642784,0.00068805319875303,0.02889823434762726,9.146291566343855e-06,3.049645214527836e-06,4.734172043142766e-07,1.9883522581199616e-05,9.146291566343855e-06,3.049645214527836e-06,4.734172043142766e-07,1.9883522581199616e-05,-0.3122033898305089,34.03299825756336,-86.08,94.28,0.29133823850479085,0.0013737164211942328,0.2892266741464726,0.2950956099037825,0.053042682452298096,0.00829795830381193,0.04055045757138121,0.06502006826597215,0.02467577737664129,0.03423045411740901,8.999604849124765e-07,0.09161790376878831,-0.7974942740229052,0.009108230283525653,-0.8110970787728164,-0.7816919931145297,-0.3744437735962217,2.356010700456514,-3.28216552734375,4.24957275390625,30.30052631578947,0.00998613997947888,30.29,30.31,0.10847457627118644,0.0001052631578947346,0,1,0
0,0.010613690516275573,0.006455550484362873,0.0,0.019953552210186066,0.010344043021793857,0.0068793303653080775,-0.00894469158378939,0.01995354276383787,7.117251889184227e-06,4.733345263129068e-06,-6.154423656085595e-06,1.372909892511402e-05,7.117251889184227e-06,4.733345263129068e-06,-6.154423656085595e-06,1.372909892511402e-05,4.956406779661017,37.27869068185168,-112.67,72.99,0.29151873059497047,0.0017223655662899815,0.28918269167712246,0.29465965854847403,0.022287750454905372,0.009261461383873404,0.008358667859033414,0.0378040875444732,0.004424051255360382,0.018237530725325916,2.22327760895924e-07,0.07961931658485677,-0.765937979394664,0.007793687562205271,-0.7798291337992694,-0.7546597670375933,0.13090317714595293,2.6533457678296104,-3.46527099609375,4.83551025390625,30.306666666666665,0.007453559924999141,30.29,30.31,0.08135593220338982,0.000928792569659423,0,1,0
0,0.015174622628529953,0.0003188334505840422,0.014449124014272667,0.015825231063251018,0.015174615444607633,0.00031883329964290904,0.01444911717381363,0.01582522357131969,1.044094269650944e-05,2.193742716882866e-07,9.941761290599808e-06,1.088859569922836e-05,1.044094269650944e-05,2.193742716882866e-07,9.941761290599808e-06,1.088859569922836e-05,-4.798503401360541,38.36105959170429,-113.05,78.18,0.28988858908368975,0.0006397406659488986,0.288444029619423,0.2907903832681359,0.003019273094940458,0.00197013013393483,0.0007851468448767411,0.007395345488176895,1.5097265546487313e-07,2.6438673575091366e-08,1.258792684949439e-07,2.2767423629027617e-07,-0.7488128461922923,0.0023549052723489295,-0.7537552631136499,-0.746088256592469,-0.1901836543120155,2.405365717552578,-3.2501220703125,4.46014404296875,30.316315789473684,0.009296590385608062,30.31,30.33,0.13605442176870747,0.0013684210526315498,0,1,0
