,net_acc_mean,net_acc_std,net_acc_min,net_acc_max,ACC_x_mean,ACC_x_std,ACC_x_min,ACC_x_max,ACC_y_mean,ACC_y_std,ACC_y_min,ACC_y_max,ACC_z_mean,ACC_z_std,ACC_z_min,ACC_z_max,BVP_mean,BVP_std,BVP_min,BVP_max,EDA_mean,EDA_std,EDA_min,EDA_max,EDA_phasic_mean,EDA_phasic_std,EDA_phasic_min,EDA_phasic_max,EDA_smna_mean,EDA_smna_std,EDA_smna_min,EDA_smna_max,EDA_tonic_mean,EDA_tonic_std,EDA_tonic_min,EDA_tonic_max,Resp_mean,Resp_std,Resp_min,Resp_max,TEMP_mean,TEMP_std,TEMP_min,TEMP_max,BVP_peak_freq,TEMP_slope,0,1,2
0,0.039588821157343176,0.00399130121471787,0.013073016965294318,0.05573233548362315,-0.03958880241532739,0.0039912993251685494,-0.05573230909899543,-0.01307301077630757,-2.723920213666772e-05,2.7462262678630306e-06,-3.8346793549456406e-05,-8.994926881971256e-06,-2.723920213666772e-05,2.7462262678630306e-06,-3.8346793549456406e-05,-8.994926881971256e-06,-2.838745762711864,20.840361381096184,-54.06,31.13,2.078716696226089,0.00558760054853925,2.0719022475347675,2.0938109537737097,1.6091678443978212,0.4142992101319179,1.011808316636871,2.2994099330802067,1.89766486211048,1.5093076761621265,0.0003547759452899868,4.283447845571679,2.416673489223033,0.41986127282860297,1.7030408519391917,3.074983009571925,3.8064029021535264,2.8830296361860226,-2.1514892578125,8.734130859375,33.41736842105261,0.009647527778855908,33.41,33.43,0.16271186440677965,0.000350877192982511,0,1,0
0,0.030130235758205014,0.0063148604039864895,0.013761070489783492,0.04953985376322058,-0.030130221494043145,0.00631485741442505,-0.04953983031021816,-0.013761063975060599,-2.0731195278113692e-05,4.344957843664446e-06,-3.408603871062791e-05,-9.468344086285531e-06,-2.0731195278113692e-05,4.344957843664446e-06,-3.408603871062791e-05,-9.468344086285531e-06,-3.1393898305084718,96.65948864643559,-350.9,229.01,2.1136595758620986,0.05141677126226276,2.0425704523362427,2.2402553981282383,3.25506628258144,0.5013218342963801,2.39969670376178,3.9675031424450626,3.753199526659385,4.438235406363184,8.744864032905753e-08,13.888588432882514,0.9134525106788431,0.42561388615070617,0.23050060044690573,1.6192437219312275,1.3078988430628005,10.31713290095085,-14.21356201171875,20.44219970703125,33.41,0.014907119849998282,33.39,33.43,0.13559322033898305,-0.0020227038183692927,0,1,0
0,0.0384467459194155,0.006073489385039414,0.025457980406099465,0.05298012138566645,-0.03844672771807749,0.0060734865097470895,-0.05298009630398331,-0.02545796835386211,-2.6453393988009978e-05,4.17888182061486e-06,-3.64531247321993e-05,-1.7516436559628233e-05,-2.6453393988009978e-05,4.17888182061486e-06,-3.64531247321993e-05,-1.7516436559628233e-05,6.088677966101697,89.44529878001104,-184.53,254.55,2.0620543328962113,0.07989088265732239,1.9613836465148045,2.25551716627766,4.383929679219433,0.2844624911514188,3.8900437313770864,4.812987863027456,3.185212342770828,3.8842905557200167,2.0929832089677802e-08,12.351795095497536,-0.4244261626057579,0.32627755883631954,-0.9073627156029149,0.15565912686443223,-8.539870950779312,2.00968484582144,-12.59613037109375,-5.03997802734375,33.40263157894736,0.00964752777885248,33.39,33.41,0.08135593220338982,-0.0002105263157894318,0,1,0
0,0.030784544425614332,0.00413462616949246,0.01788939163671854,0.044035425567307176,-0.030784529851691684,0.004134624212090699,-0.04403540472019392,-0.01788938316757878,-2.118139423656459e-05,2.844841414770726e-06,-3.02987010761137e-05,-1.230884731217119e-05,-2.118139423656459e-05,2.844841414770726e-06,-3.02987010761137e-05,-1.230884731217119e-05,-4.03289115646259,74.21978781663269,-192.8,140.22,2.0739806574482813,0.11922262072951618,1.9940447081359935,2.4446252585556016,5.1214885664099,0.48704385971684533,4.78194430480066,6.535098666426135,4.664337199540986,4.7476914711724625,6.251457307371311e-08,16.93345356247511,-1.1169740507717691,0.07226812128403938,-1.183400064613779,-0.9460115226562192,5.292657705453726,5.7555626597099785,-8.343505859375,14.593505859375,33.389999999999986,0.013333333333333048,33.37,33.41,0.10884353741496598,0.0019814241486068277,0,1,0
0,0.02528596702497716,0.006533265605249972,0.012384963440805145,0.033026569175480386,-0.025285955054173834,0.006533262512291832,-0.03302655354014544,-0.01238495757755454,-1.739808225854967e-05,4.49523216987565e-06,-2.2724025807085277e-05,-8.521509677656977e-06,-1.739808225854967e-05,4.49523216987565e-06,-2.2724025807085277e-05,-8.521509677656977e-06,2.679322033898311,79.82310251083717,-203.45,161.32,2.2215894776604705,0.1077155354892885,2.012394278031839,2.430288310424198,5.377965904487067,0.6481704809967139,4.074911463551381,6.486443407820781,3.0429458871174515,5.379562112688764,2.9876090934521926e-08,19.13193262717577,-0.771882140582941,0.25423472310684125,-1.1211352959546728,-0.30141568277711217,2.9404685160066593,3.3116937374898754,-6.00433349609375,8.0474853515625,33.4036842105263,0.009296590385606412,33.39,33.41,0.13559322033898305,0.0008070175438594885,0,1,0
0,0.013742347944899438,0.0006161751371664822,0.013073016965294318,0.015825231063251018,-0.013742341439040066,0.0006161748454587795,-0.01582522357131969,-0.01307301077630757,-9.455461985487882e-06,4.239610734090656e-07,-1.088859569922836e-05,-8.994926881971256e-06,-9.455461985487882e-06,4.239610734090656e-07,-1.088859569922836e-05,-8.994926881971256e-06,1.4012542372881363,33.54048715755143,-104.28,80.61,1.9745330318491559,0.014736285923312022,1.955288220815061,2.015029098902346,3.2512378200652083,0.4225745730286146,2.568527753776845,4.0101931963099124,1.7999530304847502,1.4401901322242912,5.11807259329089e-06,5.1959066649075965,0.3547564477747921,0.3674919434581425,-0.23686747801976604,0.9595577716171502,-1.2058254505883008,4.66339610894021,-7.4371337890625,6.49566650390625,33.41444444444443,0.008314794192832278,33.41,33.43,0.16271186440677965,-0.0006604747162023736,0,1,0
0,0.013933083870905737,0.0005175874935964625,0.013073016965294318,0.014449124014272667,-0.013933077274748878,0.0005175872485618132,-0.01444911717381363,-0.01307301077630757,-9.586698387364119e-06,3.5612756200673476e-07,-9.941761290599808e-06,-8.994926881971256e-06,-9.586698387364119e-06,3.5612756200673476e-07,-9.941761290599808e-06,-8.994926881971256e-06,-0.6112881355932211,26.353487628872077,-59.36,38.59,1.9361039444813137,0.012021077155252803,1.920884051166838,1.9597275174776687,1.8735643164168094,0.368493115905819,1.3212103033146863,2.503653695543209,0.8624181495483122,0.4308825649605911,0.1921239428088981,2.0790848473151655,1.5771827295954097,0.32230180036069755,1.0293381785405347,2.083791449513407,-1.1031640526525655,3.5711802221224374,-5.75103759765625,5.40924072265625,33.40555555555554,0.008314794192829324,33.39,33.41,0.13559322033898305,0.0009907120743032085,0,1,0
0,0.017767695094972148,0.00477891812073095,0.00894469581835927,0.042659318518328826,-0.017767686683445583,0.004778915858310495,-0.04265929832268786,-0.00894469158378939,-1.2225113656986348e-05,3.2881483428821176e-06,-2.935186666748515e-05,-6.154423656085595e-06,-1.2225113656986348e-05,3.2881483428821176e-06,-2.935186666748515e-05,-6.154423656085595e-06,1.3056802721088423,50.449771997554734,-130.88,122.37,1.9212825250367591,0.003503206641959671,1.91566689890282,1.9280618131963136,0.8393721691934206,0.23224080599276475,0.49298272365134077,1.2582358063967307,0.3172335109553194,0.431938116074639,2.3186506759032e-07,1.4516481833014065,2.550760295548104,0.2341279256874912,2.137198805838325,2.9036041339444205,-0.1942928816921027,2.7150308100611964,-3.34625244140625,5.55877685546875,33.4015789473684,0.009874559494363151,33.39,33.41,0.08163265306122448,0.0007017543859647727,0,1,0
0,0.013400661500765375,0.0006181984731310409,0.013073016965294318,0.016513284587740193,-0.013400655156666115,0.0006181981804654536,-0.01651327677007272,-0.01307301077630757,-9.220363645930456e-06,4.2535323553255875e-07,-1.1362012903542639e-05,-8.994926881971256e-06,-9.220363645930456e-06,4.2535323553255875e-07,-1.1362012903542639e-05,-8.994926881971256e-06,-3.2115593220339007,26.60439292658721,-68.91,43.14,1.9160985092315341,0.002519379308276842,1.9123599915244607,1.9208586727144046,0.24630633275116173,0.10587429153599147,0.09732979142428846,0.45056301404819293,0.044966129057411236,0.131609275119165,1.1841027935943771e-07,0.5572720626086731,3.124137490350662,0.09898901127614834,2.934391188799618,3.256156762949901,-0.1351034866886926,2.4116838538444925,-3.509521484375,5.0079345703125,33.41444444444443,0.008314794192832278,33.41,33.43,0.16271186440677965,-0.0004953560371517803,0,1,0
0,0.013124156078600966,0.0001974051014678203,0.012384963440805145,0.013761070489783492,-0.013124149865404035,0.0001974050080129156,-0.013761063975060599,-0.01238495757755454,-9.030113295805448e-06,1.3582514721315374e-07,-9.468344086285531e-06,-8.521509677656977e-06,-9.030113295805448e-06,1.3582514721315374e-07,-9.468344086285531e-06,-8.521509677656977e-06,0.2552542372881365,27.062527883474566,-58.54,42.84,1.9050004197601964,0.0033442758830740694,1.8997402255688596,1.9120136418815656,0.05035487856233276,0.0148286379064253,0.034653257283281655,0.08670134805978136,0.045706472673544433,0.08996562169765221,1.1033082736311428e-07,0.25169085156079474,3.276676536406018,0.01385252339027773,3.243274538622515,3.2912199564871645,0.3501385672216676,3.445691389056234,-4.31060791015625,6.98089599609375,33.43,0.011239029738980753,33.41,33.47,0.13559322033898305,0.0012280701754386761,0,1,0
0,0.013498954861406669,0.00033413317597777035,0.013073016965294318,0.013761070489783492,-0.013498948470773688,0.00033413301779348876,-0.013761063975060599,-0.01307301077630757,-9.287994675118195e-06,2.2990129170181247e-07,-9.468344086285531e-06,-8.994926881971256e-06,-9.287994675118195e-06,2.2990129170181247e-07,-9.468344086285531e-06,-8.994926881971256e-06,1.4202372881355936,26.202139030510516,-53.4,34.84,1.8956642864650723,0.0033411710347538187,1.8892861368819647,1.9013658127861468,0.164527387295689,0.06490874560969478,0.07391272594949858,0.2763420057585466,0.2313444841990439,0.2591134432646185,6.080864348056991e-06,0.9873947061240789,3.1231763407104207,0.07634518326644517,2.9853742510747674,3.234208410618355,-0.19053554742039636,3.239758194096542,-4.71343994140625,5.5267333984375,33.45333333333334,0.015275252316518837,33.43,33.47,0.13559322033898305,-0.0022497420020637705,0,1,0
0,0.016176278779827104,0.002740919184945809,0.012384963440805145,0.022017712783653588,-0.016176271121703882,0.002740917887348431,-0.02201770236009696,-0.01238495757755454,-1.113013508918461e-05,1.885897319909487e-06,-1.514935053805685e-05,-8.521509677656977e-06,-1.113013508918461e-05,1.885897319909487e-06,-1.514935053805685e-05,-8.521509677656977e-06,-0.6357482993197268,33.08832301096782,-64.88,82.74,1.8860379813332362,0.00581621878868277,1.8798932239801192,1.9005149986048242,0.48466860828756464,0.14479176241859146,0.2861372976271734,0.7715455405350787,0.6374818126357006,0.545396779623489,1.8296550800656064e-05,1.7870655337231218,2.764173944549814,0.13133167552215558,2.535682853561764,2.9654587876917256,0.7436340559209251,2.1664971918986518,-2.54058837890625,4.43878173828125,33.454444444444455,0.008314794192829326,33.45,33.47,0.13605442176870747,0.00033023735810106946,0,1,0
0,0.012617413955835254,0.00633322167586805,0.004128321146935048,0.031650462126502035,-0.012617407982538659,0.006333218677614083,-0.03165044714263938,-0.00412831919251818,-8.681447922357747e-06,4.357591369534798e-06,-2.177719139845672e-05,-2.8405032258856597e-06,-8.681447922357747e-06,4.357591369534798e-06,-2.177719139845672e-05,-2.8405032258856597e-06,0.3769491525423604,115.75862442891842,-228.37,469.91,1.8975513743085168,0.007307554328402108,1.8826902131035246,1.9071116070562328,1.1026349269954685,0.21031630062126383,0.8060724987806185,1.4763832519399218,1.185719212821189,0.9042576673573197,8.018746250115782e-05,3.1435475979998095,2.192530280987671,0.1990368539886654,1.8542992706917816,2.5049649094162856,-0.6307545134210705,2.504655538148576,-3.61175537109375,4.72412109375,33.458421052631586,0.009874559494363151,33.45,33.47,0.13559322033898305,0.0009824561403506816,0,1,0
0,0.027948078875679325,0.005846228937893116,0.00894469581835927,0.03715489032241543,-0.02794806564458733,0.005846226170189722,-0.037154872732663616,-0.00894469158378939,-1.9229755965718e-05,4.0225146170327175e-06,-2.5564529032970932e-05,-6.154423656085595e-06,-1.9229755965718e-05,4.0225146170327175e-06,-2.5564529032970932e-05,-6.154423656085595e-06,-1.0184745762711795,136.78493726685264,-328.66,326.62,1.9047925957544025,0.05334749941305226,1.8433172141075578,2.0287915058194024,1.8105990184492606,0.17273227769812546,1.5297837014350573,2.0923809392889474,1.8221127286247116,3.001797213954404,1.8307829918740026e-08,10.151893346325572,1.5163651271480123,0.17036626345645334,1.2650316045776535,1.8152243044986962,1.0221992040545977,2.3200118135682843,-2.83050537109375,4.65240478515625,33.46333333333334,0.009428090415818758,33.45,33.47,0.05423728813559322,-0.001486068111454813,0,1,0
0,0.029205082708385045,0.0023690619353180756,0.026146033930588636,0.037842943846904606,-0.02920506888220629,0.0023690608137642045,-0.03784292593141665,-0.02614602155261514,-2.0094641064204587e-05,1.630039870950917e-06,-2.6037946237285214e-05,-1.7989853763942512e-05,-2.0094641064204587e-05,1.630039870950917e-06,-2.6037946237285214e-05,-1.7989853763942512e-05,-0.9224067796610205,75.34372892355219,-204.62,148.09,1.885711936810764,0.02822708842828812,1.862088158986638,1.9524759526860367,2.0431686996374054,0.1187715435621778,1.848647548211246,2.2869723750571014,1.2268930551514325,0.8702750022797969,3.1455699058824393e-06,2.46489970608755,1.2043192307570432,0.04041799217608149,1.1616570561638713,1.303597998811333,-0.8196108986071262,2.0069542680627794,-3.36456298828125,3.54766845703125,33.46789473684212,0.006137844099835937,33.45,33.47,0.10847457627118644,0.0005964912280700568,0,1,0
0,0.028186791322951054,0.00012471941451822126,0.027522140979566984,0.028210194504056162,-0.028186777978848578,0.00012471935547394634,-0.02821018114887423,-0.027522127950121197,-1.9394002750888216e-05,8.581355148026502e-08,-1.941010537688534e-05,-1.8936688172571062e-05,-1.9394002750888216e-05,8.581355148026502e-08,-1.941010537688534e-05,-1.8936688172571062e-05,1.4154081632653064,35.17137484527542,-73.48,60.51,1.855555710220866,0.003917344356988434,1.8493663511026657,1.8621558966514065,1.443864067700948,0.2446253075048997,1.018532332121512,1.81916754312117,0.7044054482221621,0.3873728214110699,0.15563482630503955,1.406583270615112,1.682037178166405,0.2319660182028004,1.3333511099579436,2.082415164509256,0.4766336445772914,1.941437751268214,-2.386474609375,3.9031982421875,33.46222222222224,0.009749960430433751,33.45,33.47,0.13605442176870747,-0.00026831785345711895,0,1,0
0,0.02771404706462858,0.0003188334505840439,0.026834087455077812,0.028210194504056162,-0.027714033944331133,0.00031883329964290936,-0.02821018114887423,-0.02683407475136817,-1.906872970574718e-05,2.1937427168828777e-07,-1.941010537688534e-05,-1.8463270968256787e-05,-1.906872970574718e-05,2.1937427168828777e-07,-1.941010537688534e-05,-1.8463270968256787e-05,1.579525423728815,30.472216082771478,-61.72,44.21,1.8490148482506372,0.002953404399292579,1.8442455090572192,1.8543702063253096,0.5615448453991264,0.2398964192390975,0.21314453606993783,0.9777837486067,0.09580374415538338,0.17304143660646648,1.0508586445467927e-07,0.5271022837618222,2.5364669194904215,0.2270810616069979,2.1326930078562865,2.864597963281483,0.14678207283871936,2.1954984825571557,-3.20892333984375,4.193115234375,33.458421052631586,0.009874559494363151,33.45,33.47,0.13559322033898305,0.0004210526315788636,0,1,0
0,0.02733618056754286,0.0007443064039356228,0.022017712783653588,0.029586301553034506,-0.027336167626133823,0.0007443060515684163,-0.029586287546380288,-0.02201770236009696,-1.8808737576810443e-05,5.121221596328867e-07,-2.035693978551389e-05,-1.514935053805685e-05,-1.8808737576810443e-05,5.121221596328867e-07,-2.035693978551389e-05,-1.514935053805685e-05,-1.3278644067796614,28.96140086710248,-64.54,36.21,1.839045246239409,0.0025813001707728693,1.8344678883376964,1.8445004445449884,0.09147357449992148,0.040980246607998254,0.053328663742665046,0.18914210725921032,0.05514411733808819,0.10083155994811192,1.8873036111699548e-07,0.318101911391264,2.9703886449599732,0.03282873630463662,2.8872450270018812,2.999465957315366,-0.4057393915861096,1.6326352011183318,-2.606201171875,2.89154052734375,33.45000000000001,0.013333333333333048,33.43,33.47,0.10847457627118644,0.0013209494324045712,0,1,0
0,0.030176061716882335,0.00364525713142743,0.019953552210186066,0.03577878327343708,-0.030176047431025727,0.00364525540570121,-0.03577876633515756,-0.01995354276383787,-2.0762725960640413e-05,2.5081296421644946e-06,-2.461769462434238e-05,-1.372909892511402e-05,-2.0762725960640413e-05,2.5081296421644946e-06,-2.461769462434238e-05,-1.372909892511402e-05,6.143129251700677,51.75202030697972,-100.32,136.06,1.8306152364348185,0.005121752676220842,1.817144829077337,1.83730589588798,0.18068740621999518,0.06818666186271051,0.08519725052103598,0.27415508591165694,0.2367105643201672,0.25728750853350685,1.4202477188085538e-05,0.8289535573557183,2.8445884032260498,0.08375153176276941,2.6967547891379464,2.965823770772811,0.5001068115234375,2.1225111591011094,-2.8839111328125,4.13360595703125,33.46111111111112,0.00993807989999709,33.45,33.47,0.08163265306122448,0.0016511867905053474,0,1,0
0,0.023262762018443506,0.011478973812453802,0.0,0.04059515794486131,-0.02325338973744933,0.011497920033033677,-0.04059513872642877,0.00068805319875303,-1.5999569190702906e-05,7.911180657735365e-06,-2.7931615054542318e-05,4.734172043142766e-07,-1.5999569190702906e-05,7.911180657735365e-06,-2.7931615054542318e-05,4.734172043142766e-07,-4.153627118644059,104.97879134343641,-230.06,254.48,1.8309760567171967,0.022444952436582285,1.815372326129437,1.9003776470607925,0.5075741705605832,0.1490124771732317,0.2867433574774674,0.8268072870720216,0.5884214775869828,0.912878440770308,3.370250567513722e-08,2.873503677526692,2.5144111314624076,0.09516667143695634,2.367344369967128,2.677476573764246,-0.553454832166951,2.55949989998195,-3.7017822265625,5.32989501953125,33.465789473684225,0.00815364914990873,33.45,33.47,0.13559322033898305,0.0007719298245612499,0,1,0
0,0.018805246665937244,0.002822661449180914,0.010320802867337619,0.028898248028545334,-0.01880523776321624,0.002822660112885372,-0.02889823434762726,-0.010320797981295449,-1.2939003996292224e-05,1.9421403196633685e-06,-1.9883522581199616e-05,-7.101258064714148e-06,-1.2939003996292224e-05,1.9421403196633685e-06,-1.9883522581199616e-05,-7.101258064714148e-06,-0.5483050847457571,58.836902854129285,-211.58,109.7,1.8205328867016668,0.015021403382459964,1.8078593324959942,1.8772412002051428,0.7125293386317522,0.029945658056465648,0.6842139752075129,0.8096870479953627,0.48731567959940286,0.5983264693616355,3.6160301419840835e-08,2.1003688316957128,2.2786849169522068,0.03638516415279713,2.240685779383597,2.3539905214325914,0.7493869214556508,2.3670317629881947,-3.0426025390625,4.8095703125,33.461111111111116,0.009938079899997086,33.45,33.47,0.16271186440677965,0.0006604747162021389,0,1,0
0,0.02769532451974453,0.005473239076200857,0.018577445161207715,0.044035425567307176,-0.02769531140831074,0.005473236485077159,-0.04403540472019392,-0.018577436366331808,-1.905584760494949e-05,3.7658778710891317e-06,-3.02987010761137e-05,-1.2782264516485466e-05,-1.905584760494949e-05,3.7658778710891317e-06,-3.02987010761137e-05,-1.2782264516485466e-05,-0.35616949152541977,84.58721644353943,-238.21,211.16,1.8092020786320355,0.0050897263775357,1.7993508607426831,1.8183012331338366,0.6160971875679039,0.06562344486891578,0.47623142433482823,0.6937594127940233,0.35193696493800447,0.6035959572631017,3.5262892161824766e-07,1.670346673120294,2.3227645227881917,0.06451105591701806,2.243029267747172,2.4465530340876174,-0.5815042159693413,2.2813033079450733,-3.91082763671875,3.64227294921875,33.47421052631581,0.00815364914991163,33.47,33.49,0.10847457627118644,-0.0009122807017545285,0,1,0
0,0.025827750667559667,0.00034306221795562137,0.025457980406099465,0.026146033930588636,-0.025827738440266763,0.0003430620555441817,-0.02614602155261514,-0.02545796835386211,-1.7770858050382212e-05,2.3604494468796464e-07,-1.7989853763942512e-05,-1.7516436559628233e-05,-1.7770858050382212e-05,2.3604494468796464e-07,-1.7989853763942512e-05,-1.7516436559628233e-05,-0.094115646258503,30.542987890053123,-110.62,44.39,1.7963419313036288,0.0036001534449744787,1.7911640766864418,1.8032275683278445,0.2785128743594867,0.09882043792640445,0.13022133869027885,0.44511420493111276,0.08650605663854193,0.19473105408127414,7.320818427025699e-07,0.7892629804001672,2.60870074087073,0.08466069390065153,2.4640159819597516,2.736394397621523,0.3192953672953338,1.7993395733078315,-3.448486328125,4.14886474609375,33.47000000000001,1.4210854715202004e-14,33.47,33.47,0.13605442176870747,0.0,0,1,0
0,0.02238963360770178,0.004900894842066183,0.004816374671424223,0.033026569175480386,-0.022389623008071582,0.004900892521899894,-0.03302655354014544,-0.00481637239127121,-1.5405251729578076e-05,3.372074776438026e-06,-2.2724025807085277e-05,-3.313920430199936e-06,-1.5405251729578076e-05,3.372074776438026e-06,-2.2724025807085277e-05,-3.313920430199936e-06,-4.386000000000001,64.95333770941431,-226.85,151.54,1.7872990854712687,0.003929286480709184,1.7794905768486815,1.7928788128065034,0.08076461072347557,0.0270203829752409,0.04439149139256511,0.13839900787556728,0.08479991298758509,0.14624161556733728,3.171036750959644e-07,0.44398225588711915,2.7701954240008044,0.018024457240108895,2.729674266823891,2.790463323163305,1.0098985051990443,2.9935534968728286,-3.26995849609375,6.50787353515625,33.47894736842107,0.01209381609797571,33.47,33.5,0.13559322033898305,0.0007719298245613746,0,1,0
0,0.018788073791153378,0.0063775210096734146,0.0006880535244891746,0.03096240860201286,-0.018788064896562328,0.006377517990447391,-0.03096239394388635,-0.00068805319875303,-1.2927188150459217e-05,4.3880716534323256e-06,-2.1303774194142445e-05,-4.734172043142766e-07,-1.2927188150459217e-05,4.3880716534323256e-06,-2.1303774194142445e-05,-4.734172043142766e-07,-2.9476610169491537,79.66036912909327,-211.97,235.01,1.7988877826112026,0.020457691014858607,1.7805114095726244,1.8473679222627852,0.2998940857813173,0.11149522269007085,0.13468993122937584,0.4339525694989646,0.36156026606115055,0.6298660810542069,3.85908727196238e-08,2.6067869164017266,2.598967551799839,0.07597143427309426,2.474006886904877,2.718320690602315,-1.452803367640785,2.9664971728709952,-5.401611328125,4.67529296875,33.48611111111112,0.008906233078824082,33.47,33.5,0.13559322033898305,-0.0011661506707947536,0,1,0
0,0.023868018883293384,0.00034727826883510345,0.022705766308142764,0.024081873357121114,-0.023868007583770588,0.0003472781044277109,-0.02408186195635605,-0.022705755558849988,-1.6422458965875006e-05,2.389458106083751e-07,-1.656960215099968e-05,-1.5622767742371126e-05,-1.6422458965875006e-05,2.389458106083751e-07,-1.656960215099968e-05,-1.5622767742371126e-05,7.619932203389829,67.8722898650166,-165.69,225.28,1.7790733542404833,0.004365462081818983,1.7725040966364498,1.7881560756105483,0.43131249237017466,0.019171224733592816,0.39269159457041053,0.452183480664383,0.3167551342809257,0.27342779963480995,3.1912181711390986e-05,0.867133998708951,2.3861255510452355,0.034587556892384845,2.353264951567438,2.460426792970108,-0.4768179841119978,2.8826000457792125,-4.40826416015625,4.59747314453125,33.485555555555564,0.008314794192832278,33.47,33.49,0.08135593220338982,0.0,0,1,0
0,0.02408187335712109,2.42861286636753e-17,0.024081873357121114,0.024081873357121114,-0.024081861956355987,6.245004513516506e-17,-0.02408186195635605,-0.02408186195635605,-1.6569602150999727e-05,4.743384504624082e-20,-1.656960215099968e-05,-1.656960215099968e-05,-1.6569602150999727e-05,4.743384504624082e-20,-1.656960215099968e-05,-1.656960215099968e-05,-1.8608163265306128,23.96471815691589,-52.39,36.11,1.7709836033239785,0.0021989518521025302,1.7675228259315114,1.7750527725553618,0.36323658713819734,0.05228937238054837,0.2780641153608993,0.4257040897288045,0.21339588519345232,0.21614834031740854,3.102089637430083e-05,0.5805828807787421,2.421618263879214,0.04629795322305311,2.3588136039801224,2.506162018783571,0.9875123962875485,2.9455036603411306,-2.28424072265625,6.56585693359375,33.48578947368422,0.01138595139620292,33.47,33.5,0.13605442176870747,-0.001543859649122986,0,1,0
0,0.02408187335712109,2.42861286636753e-17,0.024081873357121114,0.024081873357121114,-0.024081861956355987,6.245004513516506e-17,-0.02408186195635605,-0.02408186195635605,-1.6569602150999727e-05,4.743384504624082e-20,-1.656960215099968e-05,-1.656960215099968e-05,-1.6569602150999727e-05,4.743384504624082e-20,-1.656960215099968e-05,-1.656960215099968e-05,-0.6161694915254247,23.79609932224867,-47.62,34.38,1.7625388584551445,0.003820299532744234,1.7566942020193315,1.770106501187099,0.1526520084969637,0.05779141753271344,0.06879914111344552,0.2654966408242503,0.027847771458150747,0.061741525459523584,2.800122094193114e-07,0.23693042386563956,2.598679161684553,0.04562560805325694,2.516994514903881,2.663053022280343,0.26161934772412154,1.8282967391094938,-1.87225341796875,4.44183349609375,33.46555555555556,0.008314794192829324,33.45,33.47,0.13559322033898305,0.00016511867905053473,0,1,0
0,0.02408187335712109,2.42861286636753e-17,0.024081873357121114,0.024081873357121114,-0.024081861956355987,6.245004513516506e-17,-0.02408186195635605,-0.02408186195635605,-1.6569602150999727e-05,4.743384504624082e-20,-1.656960215099968e-05,-1.656960215099968e-05,-1.6569602150999727e-05,4.743384504624082e-20,-1.656960215099968e-05,-1.656960215099968e-05,1.830779661016949,24.68560005145921,-53.06,33.54,1.7529807553181211,0.0038729920235314177,1.7461520278127567,1.7586209961670687,0.03149163775928401,0.013346011714478615,0.016531799887732304,0.06259975229090524,0.013788306287195198,0.04581412685042882,7.709629168406451e-08,0.20451130697452335,2.681449241663492,0.005337627586061774,2.6674312739720043,2.6866822191670074,-0.3861604789942133,1.7460467608642771,-2.83660888671875,3.63616943359375,33.471052631578964,0.012093816097974735,33.45,33.49,0.10847457627118644,-0.0007719298245612249,0,1,0
0,0.02408187335712109,2.42861286636753e-17,0.024081873357121114,0.024081873357121114,-0.024081861956355987,6.245004513516506e-17,-0.02408186195635605,-0.02408186195635605,-1.6569602150999727e-05,4.743384504624082e-20,-1.656960215099968e-05,-1.656960215099968e-05,-1.6569602150999727e-05,4.743384504624082e-20,-1.656960215099968e-05,-1.656960215099968e-05,-1.1176271186440676,23.51156512672895,-46.75,34.6,1.7477047315094274,0.003084365373721155,1.7425235458712516,1.753380542622965,0.036281806289420925,0.004191881775759707,0.029641855206219876,0.043050476409563894,0.03574001635181237,0.056336644406568874,5.292459663852611e-07,0.1538438597879629,2.6550113802181325,0.013349040946603836,2.633845400607542,2.6763257962764855,0.7607095773420532,1.9074562483996746,-1.85089111328125,4.35333251953125,33.463333333333345,0.009428090415818758,33.45,33.47,0.13559322033898305,-0.0009907120743032085,0,1,0
0,0.02407251208467906,0.0001792139756421788,0.022705766308142764,0.02476992688161029,-0.024072500688345752,0.00017921389079925918,-0.02476991515510908,-0.022705755558849988,-1.6563161100600884e-05,1.233086908254064e-07,-1.7043019355313955e-05,-1.5622767742371126e-05,-1.6563161100600884e-05,1.233086908254064e-07,-1.7043019355313955e-05,-1.5622767742371126e-05,0.9364965986394553,21.55368914959737,-45.18,35.79,1.7418167239992508,0.002721561793597881,1.7358788596808594,1.745034859705871,0.04610224834328201,0.005835336935464215,0.03741339716263495,0.05423854575288462,0.03338555733091885,0.06047035795511862,2.846417603841189e-07,0.21498023393841137,2.6210208687439915,0.005426854894637384,2.614063518858792,2.6318751181093134,-0.06853487000571883,2.29667935509171,-3.43780517578125,3.90167236328125,33.44666666666666,0.015275252316519442,33.43,33.47,0.13605442176870747,-0.0022497420020641005,0,1,0
0,0.02404933028501688,0.0003424841041545062,0.022705766308142764,0.02476992688161029,-0.024049318899658206,0.0003424839420167508,-0.02476991515510908,-0.022705755558849988,-1.6547210796741617e-05,2.3564717182617397e-07,-1.7043019355313955e-05,-1.5622767742371126e-05,-1.6547210796741617e-05,2.3564717182617397e-07,-1.7043019355313955e-05,-1.5622767742371126e-05,-1.631661016949152,23.863382734769765,-50.21,57.12,1.7345046563222368,0.002096839629966057,1.730410799934902,1.7386247531455528,0.02703611401773042,0.006459330266961105,0.017766502217495622,0.04061396666143981,0.008554825343861747,0.02692771013872368,6.11300348341004e-07,0.11910027070185975,2.610681300688686,0.001845945241352109,2.607176963001783,2.6136405346835536,-0.5242094508471619,1.9834396091732427,-3.41949462890625,3.52630615234375,33.446842105263165,0.011721609184905663,33.43,33.47,0.13559322033898305,0.0012631578947368276,0,1,0
0,0.02408187335712109,2.42861286636753e-17,0.024081873357121114,0.024081873357121114,-0.024081861956355987,6.245004513516506e-17,-0.02408186195635605,-0.02408186195635605,-1.6569602150999727e-05,4.743384504624082e-20,-1.656960215099968e-05,-1.656960215099968e-05,-1.6569602150999727e-05,4.743384504624082e-20,-1.656960215099968e-05,-1.656960215099968e-05,0.25671186440678234,19.152561762582053,-37.05,32.24,1.7264945893098234,0.003445326548464179,1.718435304383837,1.7306636692974393,0.008553689538618245,0.004239081526230309,0.0036654085234430972,0.016305008806115694,0.0020618449978383893,0.005965609265786349,1.1623254500547908e-07,0.022375369772492437,2.597936637395232,0.006072783987853976,2.586896446004275,2.6065509009804915,0.8986498826488811,2.480303696429417,-2.94647216796875,4.6356201171875,33.43888888888888,0.019116278371207537,33.41,33.47,0.13559322033898305,-0.0014860681114551059,0,1,0
0,0.02408187335712109,2.42861286636753e-17,0.024081873357121114,0.024081873357121114,-0.024081861956355987,6.245004513516506e-17,-0.02408186195635605,-0.02408186195635605,-1.6569602150999727e-05,4.743384504624082e-20,-1.656960215099968e-05,-1.656960215099968e-05,-1.6569602150999727e-05,4.743384504624082e-20,-1.656960215099968e-05,-1.656960215099968e-05,0.4787457627118646,23.52338359409684,-50.81,33.28,1.7196670521446888,0.0023374257837064163,1.7153722994522926,1.7250273729563095,0.00890999334479868,0.0036036234732763667,0.0032327586042594798,0.01754159726247729,0.01518497439569327,0.04078863269003745,3.932338083489917e-07,0.1698018653667007,2.569475104312234,0.00996067033030433,2.5527487243013116,2.5853143245451466,-0.4207218255357766,2.058349408824396,-3.3416748046875,3.76739501953125,33.43421052631578,0.008153649149911627,33.43,33.45,0.13559322033898305,0.0006315789473685197,0,1,0
0,0.02408187335712109,2.42861286636753e-17,0.024081873357121114,0.024081873357121114,-0.024081861956355987,6.245004513516506e-17,-0.02408186195635605,-0.02408186195635605,-1.6569602150999727e-05,4.743384504624082e-20,-1.656960215099968e-05,-1.656960215099968e-05,-1.6569602150999727e-05,4.743384504624082e-20,-1.656960215099968e-05,-1.656960215099968e-05,0.2423809523809511,23.52098939139494,-46.84,31.66,1.7146087706589133,0.002349558334340322,1.709469940609043,1.7190298667520605,0.02234576927283722,0.005960267530533056,0.013323311351644447,0.031596891070706776,0.014684355051651145,0.057327075009523984,2.84461364796762e-07,0.2507019175659224,2.5349733374977523,0.009549138926378976,2.519566409924459,2.5508360923366498,-0.3821758715153924,2.2721415481012595,-3.43170166015625,4.0863037109375,33.42444444444444,0.008958064164777567,33.41,33.43,0.13605442176870747,-2.0639834881324176e-05,0,1,0
0,0.02435803089416094,0.0004220885527765764,0.023393819832631935,0.026146033930588636,-0.024358019362658287,0.0004220883529527339,-0.02614602155261514,-0.02339380875760302,-1.6759613137765264e-05,2.904192414055267e-07,-1.7989853763942512e-05,-1.6096184946685404e-05,-1.6759613137765264e-05,2.904192414055267e-07,-1.7989853763942512e-05,-1.6096184946685404e-05,-0.5378983050847455,20.74686543585288,-45.98,34.99,1.7066208849515132,0.0018165094965514055,1.7033816660025218,1.709186661789752,0.02294708050379543,0.005068238282691745,0.015211384638926191,0.030836503337443297,0.020327879258261256,0.04106580477260395,5.923467119028913e-07,0.14646444526539215,2.502833860574715,0.008935214667709817,2.488471530512485,2.5178223860252973,0.659942153665623,2.4852133468855997,-3.41033935546875,4.33197021484375,33.41842105263156,0.009874559494366657,33.41,33.43,0.13559322033898305,0.00042105263157901315,0,1,0
0,0.024788522922812674,0.00011157624721446097,0.02476992688161029,0.025457980406099465,-0.0247885111875078,0.00011157619439238354,-0.02545796835386211,-0.02476991515510908,-1.7055814414889997e-05,7.677035745636939e-08,-1.7516436559628233e-05,-1.7043019355313955e-05,-1.7055814414889997e-05,7.677035745636939e-08,-1.7516436559628233e-05,-1.7043019355313955e-05,0.017661016949151485,22.59850918182487,-44.27,33.79,1.7006743811971268,0.0019223371281429282,1.696828028388803,1.7045687830713232,0.025140208288922532,0.0030317909064057867,0.019030042515799508,0.030137826235826483,0.015047211130662406,0.03658256448900699,9.722099131304063e-08,0.11851646673421634,2.4748268719721644,0.007235565406359347,2.4632134426167864,2.4869607950913366,-0.3204686575856151,2.00083289186854,-2.89154052734375,3.765869140625,33.4211111111111,0.009938079900000618,33.41,33.43,0.13559322033898305,0.0009907120743035606,0,1,0
0,0.024755884972947218,9.728519695853776e-05,0.024081873357121114,0.02476992688161029,-0.0247558732530937,9.728515090208434e-05,-0.02476991515510908,-0.02408186195635605,-1.703335777971569e-05,6.693735926935025e-08,-1.7043019355313955e-05,-1.656960215099968e-05,-1.703335777971569e-05,6.693735926935025e-08,-1.7043019355313955e-05,-1.656960215099968e-05,1.097278911564626,20.441861795935157,-47.96,33.4,1.692049913116261,0.0026922124262992297,1.6872090805168967,1.6961786184607455,0.017866242194142384,0.004579733016281074,0.01271175614119836,0.02530764255706438,0.014623072840753891,0.03190336524917126,1.098625517781393e-07,0.11726023877982877,2.450650435465139,0.006920694106136482,2.4391526828129813,2.461896867081664,0.30155323871016204,2.2134511579314586,-2.78778076171875,5.21697998046875,33.41666666666666,0.009428090415822106,33.41,33.43,0.13605442176870747,-0.0001651186790505934,0,1,0
0,0.02476524624538925,5.655634264419377e-05,0.024081873357121114,0.02476992688161029,-0.02476523452110395,5.655631586946704e-05,-0.02476991515510908,-0.02408186195635605,-1.7039798830114518e-05,3.8913754043673463e-08,-1.7043019355313955e-05,-1.656960215099968e-05,-1.7039798830114518e-05,3.8913754043673463e-08,-1.7043019355313955e-05,-1.656960215099968e-05,1.230508474576271,23.63783287721792,-50.84,34.17,1.6870830033334066,0.0025020971854895994,1.6828740909824962,1.6912319476172388,0.023299516828697808,0.0032206762105644465,0.018579495660055012,0.029269799634364328,0.022513450842505226,0.040904660442392375,1.5023842552253086e-06,0.13924858780619315,2.4238479913464768,0.008790170516809014,2.4088521316959635,2.4377363180431217,0.28072432903734684,2.676912041075051,-3.81622314453125,5.2001953125,33.41421052631577,0.008153649149911627,33.41,33.43,0.13559322033898305,-0.001052631578947533,0,1,0
0,0.02476992688161026,2.7755575615628914e-17,0.02476992688161029,0.02476992688161029,-0.02476991515510907,6.938893903907228e-18,-0.02476991515510908,-0.02476991515510908,-1.7043019355313934e-05,2.0328790734103208e-20,-1.7043019355313955e-05,-1.7043019355313955e-05,-1.7043019355313934e-05,2.0328790734103208e-20,-1.7043019355313955e-05,-1.7043019355313955e-05,-1.8268474576271208,21.657383863804707,-46.27,26.29,1.6802485637481377,0.0028249377919443578,1.674708171827973,1.6845876403499354,0.027423837851130846,0.0035744405461080107,0.023085770745212463,0.03317820018189416,0.025768985750175208,0.05487970210418928,2.476199038037308e-07,0.21306508163519322,2.3915824677559328,0.009425995254952264,2.3762965179000606,2.4070574249789574,-0.3880750825972502,1.7890183970410882,-2.73895263671875,3.48663330078125,33.40999999999998,1.4210854715202004e-14,33.41,33.41,0.13559322033898305,0.0,0,1,0
0,0.02476992688161026,2.7755575615628914e-17,0.02476992688161029,0.02476992688161029,-0.02476991515510907,6.938893903907228e-18,-0.02476991515510908,-0.02476991515510908,-1.7043019355313934e-05,2.0328790734103208e-20,-1.7043019355313955e-05,-1.7043019355313955e-05,-1.7043019355313934e-05,2.0328790734103208e-20,-1.7043019355313955e-05,-1.7043019355313955e-05,-1.257932203389831,21.679479341944,-43.58,29.95,1.6748065061671265,0.003196273455153113,1.6697819435374397,1.6812730925239958,0.03677184852766547,0.0037669453092082695,0.030878339956617016,0.04375101665268817,0.024098563896613672,0.047766142556031455,3.201065937874503e-07,0.1842666544521201,2.360860716279342,0.007820604443260217,2.349058298482465,2.3745768582258946,-0.27253408881629965,1.9538391797788026,-2.73895263671875,3.81927490234375,33.41421052631576,0.008153649149911625,33.41,33.43,0.13559322033898305,0.001052631578947533,0,1,0
0,0.02476524624538925,5.6556342644193765e-05,0.024081873357121114,0.02476992688161029,-0.02476523452110395,5.655631586946708e-05,-0.02476991515510908,-0.02408186195635605,-1.7039798830114518e-05,3.891375404367344e-08,-1.7043019355313955e-05,-1.656960215099968e-05,-1.7039798830114518e-05,3.891375404367344e-08,-1.7043019355313955e-05,-1.656960215099968e-05,2.790136054421767,22.04979437442169,-44.68,31.17,1.6654282731322492,0.0035919799196977792,1.6577446216931238,1.671142997259261,0.017754965684636213,0.005140664716413523,0.011449487730597306,0.029351567997632028,0.007294811620607015,0.021775327595905208,1.0365753466690109e-07,0.08657262849249958,2.3409888307286337,0.0039342918606749076,2.335056665096816,2.348027377715338,0.4240665483119766,1.771142283829044,-2.17437744140625,3.8055419921875,33.41666666666666,0.009428090415822106,33.41,33.43,0.13605442176870747,0.0008255933952529671,0,1,0
0,0.02211534199996627,0.0029312037596021198,0.01926549868569689,0.028898248028545334,-0.022115331530190324,0.0029312023719208218,-0.02889823434762726,-0.01926548956508484,-1.5216524600831167e-05,2.016823168192593e-06,-1.9883522581199616e-05,-1.3255681720799745e-05,-1.5216524600831167e-05,2.016823168192593e-06,-1.9883522581199616e-05,-1.3255681720799745e-05,-3.251796610169492,39.23283029179001,-153.41,115.99,1.6648738452546819,0.003254698429239093,1.6595027989615947,1.6700079181634937,0.029011149860792923,0.014117781484356799,0.01240590572066625,0.050293066871578335,0.03178054622441754,0.07179160294025404,2.1929206622806063e-07,0.2852752775625335,2.329206947439234,0.003267112768536407,2.323594929833578,2.3344650428088354,0.27659962845795205,2.2521309577259503,-3.4027099609375,3.78265380859375,33.416315789473664,0.009296590385609711,33.41,33.43,0.13559322033898305,-0.001368421052631793,0,1,0
0,0.020093971296816532,0.0002773054769951342,0.019953552210186066,0.020641605734675238,-0.02009396178399154,0.00027730534571404473,-0.020641595962590898,-0.01995354276383787,-1.3825714681096545e-05,1.9080083014986354e-07,-1.4202516129428297e-05,-1.372909892511402e-05,-1.3825714681096545e-05,1.9080083014986354e-07,-1.4202516129428297e-05,-1.372909892511402e-05,1.3564745762711858,22.308432420564948,-47.3,33.65,1.6618940023207278,0.002833806925466387,1.655223140633401,1.6665913706937425,0.029190773277629496,0.004814426962124364,0.01943615807818166,0.03989988226201026,0.012981284972938163,0.040478015467296166,3.0493958347310723e-07,0.17414098478737544,2.315657945316643,0.0046848036941334196,2.3075468310248772,2.322873218313004,-0.5003306276118427,1.9133922585448742,-3.070068359375,3.57513427734375,33.41333333333331,0.0074535599250004645,33.41,33.43,0.10847457627118644,0.000928792569659588,0,1,0
0,0.020139512622210184,0.000305564137405664,0.019953552210186066,0.020641605734675238,-0.020139503087825177,0.0003055639927464478,-0.020641595962590898,-0.01995354276383787,-1.385704952087465e-05,2.1024428263294199e-07,-1.4202516129428297e-05,-1.372909892511402e-05,-1.385704952087465e-05,2.1024428263294199e-07,-1.4202516129428297e-05,-1.372909892511402e-05,1.5040000000000002,19.973343632562052,-42.84,25.19,1.6549331124324962,0.0022503261935498046,1.6515437980263077,1.6579544978675842,0.020867535213654323,0.0024247236170309235,0.016376446469051623,0.024995429498101462,0.0207897271130529,0.0453289071409738,3.416651755405731e-07,0.1486846856270519,2.296298334577882,0.00646936184972965,2.2852883819481447,2.3064694178134806,0.41771301970214086,2.144045894593249,-2.98004150390625,3.70025634765625,33.41666666666666,0.009428090415822106,33.41,33.43,0.13559322033898305,0.0003302373581011868,0,1,0
0,0.02015013893146871,0.0003108308984988894,0.019953552210186066,0.020641605734675238,-0.020150129392053007,0.00031083075134629974,-0.020641595962590898,-0.01995354276383787,-1.3864360983489548e-05,2.1386809273462933e-07,-1.4202516129428297e-05,-1.372909892511402e-05,-1.3864360983489548e-05,2.1386809273462933e-07,-1.4202516129428297e-05,-1.372909892511402e-05,-1.3417687074829932,19.669950914542653,-43.59,22.08,1.6475877621427786,0.004194149043486465,1.6394819274604024,1.652260905249232,0.017739646893472308,0.005267511726151164,0.008908203461146588,0.024328898651720426,0.01356610005476622,0.042096473515126326,9.179592752595056e-08,0.18341586326466686,2.2702811028714778,0.00846614586402811,2.2561405210435055,2.2838778882420168,0.0372413812681686,1.755282837058293,-2.65350341796875,3.40118408203125,33.4257894736842,0.015326547135329806,33.41,33.45,0.13605442176870747,-0.002175438596491568,0,1,0
0,0.020051845570827405,0.00024076857867457707,0.019953552210186066,0.020641605734675238,-0.020051836077945438,0.00024076846469067131,-0.020641595962590898,-0.01995354276383787,-1.3796729954301795e-05,1.6566151228927268e-07,-1.4202516129428297e-05,-1.372909892511402e-05,-1.3796729954301795e-05,1.6566151228927268e-07,-1.4202516129428297e-05,-1.372909892511402e-05,-0.33037288135593185,19.853540559364102,-42.78,26.79,1.6399366280417154,0.003460205698750945,1.6327733881911546,1.6458073836565899,0.015892397592121063,0.0031889470485591933,0.011486234942643107,0.021573798915348094,0.008060859242870944,0.018905400520083465,2.597149656446973e-07,0.06011317339790814,2.241021065062488,0.0081577350546898,2.227869450936142,2.254529925558786,-0.2224170899043496,1.8577268161855585,-2.7618408203125,3.08990478515625,33.41444444444443,0.008314794192832278,33.41,33.43,0.13559322033898305,-0.0004953560371517803,0,1,0
0,0.02007442647800176,0.0002618346374539536,0.019953552210186066,0.020641605734675238,-0.02007441697442961,0.00026183451349702026,-0.020641595962590898,-0.01995354276383787,-1.3812266812358439e-05,1.8015607455556872e-07,-1.4202516129428297e-05,-1.372909892511402e-05,-1.3812266812358439e-05,1.8015607455556872e-07,-1.4202516129428297e-05,-1.372909892511402e-05,0.52806779661017,17.380433787436708,-38.04,23.06,1.6328439398103314,0.002263737935272585,1.6297168171876835,1.6373100022736253,0.013090548685190623,0.002267591002450072,0.009120193684531902,0.016156608431119254,0.009611349370812969,0.019945149947771898,3.827065371275751e-07,0.06700019219432582,2.214326362240117,0.007065402392763849,2.203121778383357,2.226400703274785,0.639705326657733,1.8883613741478749,-2.38189697265625,3.63922119140625,33.40157894736841,0.009874559494363151,33.39,33.41,0.10847457627118644,-0.0012631578947365908,0,1,0
0,0.020459060922055645,0.00035282187513390985,0.01926549868569689,0.021329659259164413,-0.02045905123639107,0.00035282170810208203,-0.02132964916134393,-0.01926548956508484,-1.407691564665105e-05,2.427601048491469e-07,-1.4675933333742575e-05,-1.3255681720799745e-05,-1.407691564665105e-05,2.427601048491469e-07,-1.4675933333742575e-05,-1.3255681720799745e-05,0.4332881355932203,18.709704878639627,-37.0,46.79,1.6267403208851219,0.002206095585592191,1.6217610657609807,1.6297398304331534,0.011418948881064213,0.0025844588064840306,0.006831179683100142,0.015063941581536946,0.004590744995352576,0.011420560148339089,5.48279004142227e-07,0.04479822043860787,2.192136886152503,0.006024006754659542,2.182139923598205,2.201957674068813,-0.7171100612904321,1.9906925329718586,-3.0029296875,3.65447998046875,33.41444444444444,0.015713484026367724,33.39,33.43,0.13559322033898305,0.0,0,1,0
0,0.02064160573467522,1.734723475976807e-17,0.020641605734675238,0.020641605734675238,-0.02064159596259086,3.8163916471489756e-17,-0.020641595962590898,-0.020641595962590898,-1.4202516129428307e-05,1.0164395367051604e-20,-1.4202516129428297e-05,-1.4202516129428297e-05,-1.4202516129428307e-05,1.0164395367051604e-20,-1.4202516129428297e-05,-1.4202516129428297e-05,0.2591156462585027,16.31549492746458,-35.56,24.49,1.620665154230131,0.002318958055259597,1.6154657506790702,1.623184086915533,0.009505440121706378,0.0031114944158744016,0.005005886251570708,0.014070412152595147,0.006902060780776438,0.02820047153948536,1.4849076676592965e-07,0.12317224071250506,2.169400861752001,0.007314310856198155,2.156963550738356,2.1809058675891655,0.3008930026449577,1.5623109427005302,-1.79901123046875,3.53546142578125,33.40888888888887,0.004581228472907601,33.39,33.41,0.13605442176870747,-0.0003508771929823863,0,1,0
0,0.02064160573467522,1.734723475976807e-17,0.020641605734675238,0.020641605734675238,-0.02064159596259086,3.8163916471489756e-17,-0.020641595962590898,-0.020641595962590898,-1.4202516129428307e-05,1.0164395367051604e-20,-1.4202516129428297e-05,-1.4202516129428297e-05,-1.4202516129428307e-05,1.0164395367051604e-20,-1.4202516129428297e-05,-1.4202516129428297e-05,-0.9916271186440679,18.385106778335288,-37.84,23.55,1.6123974471265197,0.0032720412674918462,1.605817699437475,1.6179375944583105,0.0057873878202074755,0.001619524120995155,0.00349137084540307,0.008357926727757141,0.0036622213298657517,0.015531112367345935,1.3610023062715637e-07,0.06955514913732969,2.1407765806124304,0.008943654448462481,2.126094589218203,2.15538764050342,0.43174469145592625,1.9511718463796304,-2.7740478515625,3.40728759765625,33.40263157894735,0.009647527778852479,33.39,33.41,0.13559322033898305,0.0014736842105260225,0,1,0
0,0.02064160573467522,1.734723475976807e-17,0.020641605734675238,0.020641605734675238,-0.02064159596259086,3.8163916471489756e-17,-0.020641595962590898,-0.020641595962590898,-1.4202516129428307e-05,1.0164395367051604e-20,-1.4202516129428297e-05,-1.4202516129428297e-05,-1.4202516129428307e-05,1.0164395367051604e-20,-1.4202516129428297e-05,-1.4202516129428297e-05,0.4167457627118645,17.406470614126466,-37.75,22.88,1.6069351218686423,0.001541714268538623,1.6047653374154434,1.6103725894540741,0.011735473127675027,0.006173992947845942,0.003477724329081222,0.019401428850716395,0.01767871298852987,0.03552362718602887,4.0647789639747245e-07,0.10209585258479775,2.1116987377975995,0.00755589727663663,2.0997885815261386,2.124492253521277,-0.41355011147295806,1.8717530647208889,-2.84576416015625,3.48663330078125,33.40555555555554,0.008314794192829326,33.39,33.41,0.13559322033898305,-0.0008255933952526737,0,1,0
0,0.02064160573467522,1.734723475976807e-17,0.020641605734675238,0.020641605734675238,-0.02064159596259086,3.8163916471489756e-17,-0.020641595962590898,-0.020641595962590898,-1.4202516129428307e-05,1.0164395367051604e-20,-1.4202516129428297e-05,-1.4202516129428297e-05,-1.4202516129428307e-05,1.0164395367051604e-20,-1.4202516129428297e-05,-1.4202516129428297e-05,-1.1813220338983053,16.44098477239501,-40.97,21.85,1.6018604431686048,0.0024210415373386706,1.5971452863122384,1.6064276135329383,0.01537473120901346,0.002326701569783601,0.0117159465667351,0.018947783771360104,0.006925473225435256,0.01814839179629506,3.55040757515912e-07,0.06395639273569353,2.087612403803091,0.006542047239589928,2.076910811264627,2.0985118680866583,0.0023564984721522178,2.078709509651295,-3.3416748046875,3.50799560546875,33.405789473684194,0.00815364914990873,33.39,33.41,0.13559322033898305,-0.00035087719298238635,0,1,0
0,0.02064160573467522,1.734723475976807e-17,0.020641605734675238,0.020641605734675238,-0.02064159596259086,3.8163916471489756e-17,-0.020641595962590898,-0.020641595962590898,-1.4202516129428307e-05,1.0164395367051604e-20,-1.4202516129428297e-05,-1.4202516129428297e-05,-1.4202516129428307e-05,1.0164395367051604e-20,-1.4202516129428297e-05,-1.4202516129428297e-05,1.2245238095238091,18.763465050240853,-41.73,29.41,1.5957738142136006,0.0014249582560254353,1.5932049431172395,1.5986072462372931,0.013394271847261505,0.003631733231837039,0.010240232064094499,0.021190564052369625,0.014633848961543322,0.0282305075721089,2.579026679994101e-07,0.0954255351575134,2.0647447732844872,0.006936553540528543,2.052912516041126,2.075707814749793,0.5146774405581188,2.130088359799919,-2.655029296875,3.83758544921875,33.40555555555554,0.008314794192829324,33.39,33.41,0.13605442176870747,0.0006604747162021389,0,1,0
0,0.020398212651182482,0.0003832409357388897,0.01926549868569689,0.021329659259164413,-0.020398202994324537,0.0003832407543061669,-0.02132964916134393,-0.01926548956508484,-1.4035048819058635e-05,2.6369002689288257e-07,-1.4675933333742575e-05,-1.3255681720799745e-05,-1.4035048819058635e-05,2.6369002689288257e-07,-1.4675933333742575e-05,-1.3255681720799745e-05,-1.9313559322033902,17.89603357793187,-44.05,25.84,1.5883097107347,0.0039645010602239175,1.5809146830438037,1.5962276581349322,0.012983721272055326,0.0038389922036998563,0.0074974097322118224,0.020500668211580784,0.0100381602722414,0.023409524126907832,8.450558366956962e-08,0.0735993561859137,2.0366264160161176,0.009151925126461527,2.021410447033639,2.051376319974219,-0.47287100893687967,1.9708850846922663,-3.12042236328125,3.89251708984375,33.40999999999998,1.4210854715202004e-14,33.41,33.41,0.13559322033898305,0.0,0,1,0
0,0.01960022742734032,0.0005026094037196953,0.018577445161207715,0.022017712783653588,-0.01960021814826195,0.0005026091657759252,-0.02201770236009696,-0.018577436366331808,-1.3485992793168885e-05,3.4582184423471704e-07,-1.514935053805685e-05,-1.2782264516485466e-05,-1.3485992793168885e-05,3.4582184423471704e-07,-1.514935053805685e-05,-1.2782264516485466e-05,2.219016949152542,23.330983982890256,-54.39,52.67,1.5837784605474188,0.0027445582487625538,1.5786227243533006,1.5883177185138493,0.02443008523607219,0.007553626684507231,0.014378623543069015,0.03571447765734549,0.024861663684138745,0.06567249515841926,3.285423050281011e-07,0.2553814121569588,2.0056689773370673,0.008382772528171784,1.992328999785678,2.0197006188988267,0.4730556013419175,2.1506200347988256,-3.06243896484375,3.8116455078125,33.41888888888888,0.009938079900000616,33.41,33.43,0.13559322033898305,0.0016511867905059342,0,1,0
0,0.019274859958138945,0.00011311268528838757,0.018577445161207715,0.019953552210186066,-0.01927485083309506,0.00011311263173893408,-0.01995354276383787,-0.018577436366331808,-1.3262122771198604e-05,7.782750808734713e-08,-1.372909892511402e-05,-1.2782264516485466e-05,-1.3262122771198604e-05,7.782750808734713e-08,-1.372909892511402e-05,-1.2782264516485466e-05,0.3578571428571418,20.861734585071275,-44.34,28.98,1.5784360666419235,0.0015618535815343805,1.5759555199257436,1.5806178089450407,0.02789571482947912,0.00398313049714904,0.021279240532739812,0.03519016105174811,0.01973011924097241,0.05616844926665566,5.911098797106717e-07,0.24464493988507774,1.9800102280391556,0.006327520993404578,1.9701517898389658,1.9908938029491015,-0.45632203814409505,1.5944185110681057,-2.4444580078125,3.1463623046875,33.425555555555555,0.008314794192832283,33.41,33.43,0.13605442176870747,0.0011558307533541539,0,1,0
0,0.01755238582880543,0.002189637444072316,0.014449124014272667,0.024081873357121114,-0.017552377519209916,0.0021896364074610168,-0.02408186195635605,-0.01444911717381363,-1.2076969497813174e-05,1.5065863342596451e-06,-1.656960215099968e-05,-9.941761290599808e-06,-1.2076969497813174e-05,1.5065863342596451e-06,-1.656960215099968e-05,-9.941761290599808e-06,-2.1025762711864395,41.555188398734906,-104.78,67.86,1.5743707700125036,0.0018543115753749666,1.5701577925228898,1.5776733569457875,0.03110825659861392,0.002284936339942977,0.026958818064393264,0.03481432826651176,0.02278912082028627,0.047253120124896665,2.001827236197684e-07,0.1582361373039049,1.9608924238872971,0.004769071988009127,1.9534318424947057,1.9691236325783221,1.1387467680143069,2.3854213535017297,-2.63519287109375,5.32379150390625,33.43526315789473,0.008806947647728488,33.43,33.45,0.13559322033898305,0.0006666666666667708,0,1,0
0,0.015671813723331145,0.0002863956376440407,0.015137177538761842,0.015825231063251018,-0.015671806304030145,0.0002863955020595144,-0.01582522357131969,-0.01513717037256666,-1.0783036457725854e-05,1.970553413005285e-07,-1.088859569922836e-05,-1.0415178494914085e-05,-1.0783036457725854e-05,1.970553413005285e-07,-1.088859569922836e-05,-1.0415178494914085e-05,2.271050847457627,24.97968136843625,-58.79,48.15,1.5670592645893844,0.004146544687811976,1.5576368407949008,1.5719113166606156,0.017950205841523736,0.005273737432728292,0.009982854498579528,0.029029863374113195,0.009141720558444703,0.023146714733509502,9.90675240175598e-08,0.08162724789260159,1.946762457123439,0.003577125596944944,1.9408725724474838,1.9526907816785768,-0.6798342078360127,2.5170637085600682,-4.89654541015625,3.64532470703125,33.44111111111112,0.009938079900000616,33.43,33.45,0.13559322033898305,0.0,0,1,0
0,0.016452436316866992,0.0016909604078879665,0.014449124014272667,0.021329659259164413,-0.016452428528006137,0.0016909596073587856,-0.02132964916134393,-0.01444911717381363,-1.1320146075950232e-05,1.1634701668053813e-06,-1.4675933333742575e-05,-9.941761290599808e-06,-1.1320146075950232e-05,1.1634701668053813e-06,-1.4675933333742575e-05,-9.941761290599808e-06,-1.0861355932203367,24.52149385740118,-53.62,51.39,1.5626031730132615,0.002235639233845969,1.558555317747877,1.5676703258111009,0.011595017022233168,0.001371633280996826,0.008837858491975435,0.013281796029615028,0.0046961040139311015,0.018084594156315085,3.6283459564634413e-07,0.08103208715040477,1.9324493056104315,0.005059529806265525,1.9234380048497304,1.9401440300942994,-0.10204646486798231,2.3598897611958645,-3.18450927734375,4.595947265625,33.44578947368421,0.008153649149911625,33.43,33.45,0.13559322033898305,-0.0007719298245615242,0,1,0
0,0.017486856921711237,0.00033901509200035966,0.017201338112229368,0.01788939163671854,-0.017486848643138243,0.0003390149315048976,-0.01788938316757878,-0.01720132996882575,-1.203188214502132e-05,2.3326030804698393e-07,-1.230884731217119e-05,-1.1835430107856916e-05,-1.203188214502132e-05,2.3326030804698393e-07,-1.230884731217119e-05,-1.1835430107856916e-05,1.4959863945578238,20.010061148239345,-45.08,40.11,1.5569589298371977,0.002247660797086115,1.55256542177405,1.5593250455589127,0.012388645470862322,0.0020855750958606854,0.007955026245761356,0.014680259030747232,0.011614637438230886,0.026223966748440596,2.623395076173374e-07,0.08121891994961689,1.90960871348361,0.008258698986184788,1.8953359619526786,1.9222189732953732,-0.0426313717371181,2.2284630908150223,-3.5919189453125,3.66973876953125,33.44555555555556,0.008314794192832282,33.43,33.45,0.13605442176870747,0.0001651186790505934,0,1,0
0,0.017085112854714302,0.00030339912815495517,0.016513284587740193,0.01788939163671854,-0.017085104766333715,0.00030339898452068955,-0.01788938316757878,-0.01651327677007272,-1.175546098550652e-05,2.0875464179788186e-07,-1.230884731217119e-05,-1.1362012903542639e-05,-1.175546098550652e-05,2.0875464179788186e-07,-1.230884731217119e-05,-1.1362012903542639e-05,-0.9784067796610171,18.99667524444751,-46.91,23.91,1.5495596990996896,0.0020782492464166647,1.5459482573977645,1.553562614471956,0.015545426895617527,0.004681716510515265,0.008517496794930437,0.023301866600304647,0.021564640658299883,0.0492464120754964,4.3243378278212674e-07,0.1841361900812708,1.8768064568519394,0.010049287014906587,1.8606882103997688,1.893492137826629,0.21649590201176722,2.1282916543054924,-2.9388427734375,4.54254150390625,33.4542105263158,0.00815364914990873,33.45,33.47,0.13559322033898305,7.017543859647726e-05,0,1,0
0,0.016574132858613415,0.00033017567541685384,0.015825231063251018,0.01788939163671854,-0.016574125012139316,0.0003301755191061194,-0.01788938316757878,-0.01582522357131969,-1.1403879731135037e-05,2.271783220709071e-07,-1.230884731217119e-05,-1.088859569922836e-05,-1.1403879731135037e-05,2.271783220709071e-07,-1.230884731217119e-05,-1.088859569922836e-05,-0.06986440677966085,22.33699781009201,-53.01,43.3,1.5455775432957393,0.0017439900661663746,1.5422349305208274,1.5491459511556962,0.026742154613202625,0.0039801415075082286,0.019470970772596616,0.032969215901233126,0.01334173138448708,0.05251098034239144,8.604379825305486e-08,0.2296230329673032,1.847691531596775,0.0062587206408417865,1.838636154161025,1.859055783448776,0.12815915166018654,3.0237411351578953,-4.66461181640625,4.44183349609375,33.457777777777785,0.01781246615764553,33.43,33.47,0.13559322033898305,-0.0010113519091847674,0,1,0
0,0.01635521823751974,0.0003002843221777529,0.015137177538761842,0.016513284587740193,-0.016355210494683494,0.0003002841800180904,-0.01651327677007272,-0.01513717037256666,-1.12532548971461e-05,2.0661149059637795e-07,-1.1362012903542639e-05,-1.0415178494914085e-05,-1.12532548971461e-05,2.0661149059637795e-07,-1.1362012903542639e-05,-1.0415178494914085e-05,1.1266101694915245,23.017810569737147,-53.99,36.03,1.5383622030302424,0.0025308366009979526,1.5328166847205964,1.5425447116817423,0.015961554385800658,0.001867458880866719,0.013238472922164898,0.021000645181812494,0.010767714983646861,0.02026706974375028,8.602081924546923e-08,0.05554815686384207,1.8325655073140708,0.0030018328347493446,1.827869169980342,1.8378592323444218,3.5983817976082553,6.3903086116335155,-3.839111328125,15.94085693359375,33.45555555555557,0.014614384931072389,33.43,33.47,0.13559322033898305,0.0015892672858617268,0,1,0
0,0.016316697866457588,0.00031083089849889064,0.015825231063251018,0.016513284587740193,-0.016316690141857566,0.00031083075134630153,-0.01651327677007272,-0.01582522357131969,-1.1226750845167114e-05,2.1386809273463023e-07,-1.1362012903542639e-05,-1.088859569922836e-05,-1.1226750845167114e-05,2.1386809273463023e-07,-1.1362012903542639e-05,-1.088859569922836e-05,-0.6822448979591839,21.530862560043445,-42.81,48.07,1.5356259772183567,0.0010728132287498927,1.533764536116877,1.537877706944432,0.015429240966497311,0.0030394953369003086,0.01023300911568509,0.01988448302168222,0.016424805565478234,0.027481866996492785,2.579384743572888e-07,0.09934806192727214,1.8212320847233732,0.00416393167622858,1.8135816348814986,1.8273294462197498,-6.382371059683866,7.681758074884521,-14.65911865234375,14.54620361328125,33.464736842105275,0.008806947647725358,33.45,33.47,0.19047619047619047,0.000666666666666534,0,1,0
0,0.016499242679077184,9.7285196958538e-05,0.015825231063251018,0.016513284587740193,-0.01649923486805735,9.728515090208524e-05,-0.01651327677007272,-0.01582522357131969,-1.1352351327944366e-05,6.693735926935091e-08,-1.1362012903542639e-05,-1.088859569922836e-05,-1.1352351327944366e-05,6.693735926935091e-08,-1.1362012903542639e-05,-1.088859569922836e-05,-1.6196949152542368,14.36508763004207,-32.14,30.99,1.5324441641793576,0.001995006019715646,1.5299914925843312,1.5366850745794671,0.020549748476113475,0.002811012231038563,0.014820967893003453,0.023603816761811502,0.013352117450527742,0.03162638189844136,3.2782936404407437e-07,0.13083767725672873,1.8022029272387279,0.006525211843227165,1.791247157543156,1.8125076601964327,2.331613983902323,4.30557018668245,-5.50537109375,9.70001220703125,33.470000000000006,0.01333333333333305,33.45,33.49,0.13559322033898305,-0.0006604747162024323,0,1,0
0,0.016513284587740228,3.469446951953614e-17,0.016513284587740193,0.016513284587740193,-0.016513276770072718,3.469446951953614e-18,-0.01651327677007272,-0.01651327677007272,-1.1362012903542617e-05,2.202285662861181e-20,-1.1362012903542639e-05,-1.1362012903542639e-05,-1.1362012903542617e-05,2.202285662861181e-20,-1.1362012903542639e-05,-1.1362012903542639e-05,2.532,21.535745509363444,-42.87,40.93,1.5265805104703158,0.0022463219804505605,1.5226436566594375,1.5303726273298128,0.02162326005194118,0.001938175778190027,0.018875217118533866,0.025159567546774952,0.018601597177393684,0.033425392617258784,4.052947803478979e-07,0.09988707048008272,1.7784320421332116,0.006779054427305932,1.7677778801362156,1.7899146829768777,0.7332676397659642,2.0494328614624937,-1.42059326171875,8.575439453125,33.458421052631586,0.009874559494363151,33.45,33.47,0.10847457627118644,-0.0004210526315788636,0,1,0
0,0.016513284587740228,3.469446951953614e-17,0.016513284587740193,0.016513284587740193,-0.016513276770072718,3.469446951953614e-18,-0.01651327677007272,-0.01651327677007272,-1.1362012903542617e-05,2.202285662861181e-20,-1.1362012903542639e-05,-1.1362012903542639e-05,-1.1362012903542617e-05,2.202285662861181e-20,-1.1362012903542639e-05,-1.1362012903542639e-05,-2.3510169491525432,21.637629377256406,-47.15,24.89,1.5201288426448691,0.003762693583649244,1.5122434407128416,1.5258994453201824,0.01487998179643015,0.004758219985741758,0.009063640598735916,0.02443814741180716,0.00879624501081773,0.025447737300076,7.443127103545777e-08,0.09527390935880595,1.759083682775204,0.004415881624457066,1.752246259010536,1.766743124051878,1.3556745235053715,1.6551559456870804,-1.07879638671875,5.05218505859375,33.4688888888889,0.014098419489387918,33.45,33.49,0.10847457627118644,-0.0003095975232201046,0,1,0
0,0.01650860395151921,5.655634264419379e-05,0.015825231063251018,0.016513284587740193,-0.016508596136067595,5.655631586946729e-05,-0.01651327677007272,-0.01582522357131969,-1.13587923783432e-05,3.8913754043673774e-08,-1.1362012903542639e-05,-1.088859569922836e-05,-1.13587923783432e-05,3.8913754043673774e-08,-1.1362012903542639e-05,-1.088859569922836e-05,2.4059183673469398,23.0686136644901,-51.87,34.73,1.5168797733245138,0.0012833777049040423,1.514876581246347,1.519648260539579,0.014094471585696692,0.0027799030103927975,0.009010562174282893,0.017389693261827835,0.007856677384803706,0.024766350785654707,8.570106742600281e-07,0.10576230465238082,1.7460134014800357,0.003272605976743863,1.7407725210154321,1.7515378922324367,-1.2209241502634054,2.636267920088366,-5.145263671875,3.97186279296875,33.468888888888884,0.018223577185395936,33.45,33.49,0.10884353741496598,-0.0003921568627449247,0,1,0
0,0.016508635577439625,5.6366254318882504e-05,0.015825231063251018,0.016513284587740193,-0.016508627761973038,5.636622763414715e-05,-0.01651327677007272,-0.01582522357131969,-1.1358814138648601e-05,3.878296322531639e-08,-1.1362012903542639e-05,-1.088859569922836e-05,-1.1358814138648601e-05,3.878296322531639e-08,-1.1362012903542639e-05,-1.088859569922836e-05,-1.4799999999999995,19.73257690182508,-42.73,24.77,1.512548486227392,0.002065281314403273,1.5093906298898028,1.5155411160032817,0.008370231332860783,0.004001398267067149,0.0027155181626559986,0.014004703867495607,0.002243928041067998,0.009514109043649023,2.6450332610283844e-07,0.04260887257585089,1.7346662195751221,0.0034211907003402716,1.7288886453371133,1.7401767642045458,0.19898379115253761,2.4311792688441995,-3.22418212890625,5.29327392578125,33.475263157894744,0.008806947647728488,33.47,33.49,0.13559322033898305,0.00045614035087726426,0,1,0
0,0.016480520134193117,0.00014652709075391553,0.015825231063251018,0.016513284587740193,-0.016480512332036863,0.00014652702138551958,-0.01651327677007272,-0.01582522357131969,-1.13394692271467e-05,1.0081838576806043e-07,-1.1362012903542639e-05,-1.088859569922836e-05,-1.13394692271467e-05,1.0081838576806043e-07,-1.1362012903542639e-05,-1.088859569922836e-05,-0.6376610169491531,20.10454495255979,-40.4,27.93,1.507885262681639,0.0013717986821939825,1.5056240529680607,1.5108259381741314,0.0025622919760627683,0.0016291240025510818,0.001062195936453085,0.005461531373393341,0.0034700764304035786,0.010941774518413251,2.6930630813576384e-07,0.04786722087199078,1.7215645739172487,0.004259291838674932,1.7142116039891353,1.7281934069073428,-0.4936376862225605,2.495317206288778,-3.61785888671875,4.64935302734375,33.47000000000001,1.4210854715202004e-14,33.47,33.47,0.13559322033898305,0.0,0,1,0
0,0.016499337556838422,9.696279749044061e-05,0.015825231063251018,0.016513284587740193,-0.016499329745773672,9.696275158661694e-05,-0.01651327677007272,-0.01582522357131969,-1.1352416608860571e-05,6.671553138906717e-08,-1.1362012903542639e-05,-1.088859569922836e-05,-1.1352416608860571e-05,6.671553138906717e-08,-1.1362012903542639e-05,-1.088859569922836e-05,0.13640677966101644,22.578594166741095,-46.33,27.66,1.5035325463763098,0.003015995812931992,1.4960147666779047,1.5074764240420677,0.004011257528732645,0.0009388734724106464,0.002088882997096193,0.005339004725701663,0.0014857044606376869,0.0062996523118555355,8.550784372229892e-08,0.028212865274019547,1.7031646918554295,0.006406620137918558,1.692276811369624,1.7132288405986809,-0.14153946717974566,1.9576671721535959,-2.81219482421875,3.80706787109375,33.47315789473686,0.014886458551295735,33.45,33.49,0.13559322033898305,0.00140350877192967,0,1,0
0,0.016494562042856167,0.00011194453674899968,0.015825231063251018,0.016513284587740193,-0.016494554234052227,0.0001119444837525679,-0.01651327677007272,-0.01582522357131969,-1.134913080274495e-05,7.702376012871079e-08,-1.1362012903542639e-05,-1.088859569922836e-05,-1.134913080274495e-05,7.702376012871079e-08,-1.1362012903542639e-05,-1.088859569922836e-05,1.231768707482993,20.292452961921825,-40.12,29.68,1.499680955351871,0.000953325351790562,1.497628761482557,1.5012459556718856,0.01047887299416213,0.004989022988820619,0.0022976558632639595,0.01842730566433305,0.014235120021992172,0.027556989740368177,3.0864210803782655e-07,0.07519611866538631,1.6801012073446886,0.006602086603841592,1.6694421509479653,1.6909953567124787,0.5907877503198666,2.08804991806252,-2.44598388671875,4.20379638671875,33.46222222222223,0.011811273125259302,33.45,33.49,0.13605442176870747,0.000309597523219628,0,1,0
0,0.01649456204285617,0.00011194453674899956,0.015825231063251018,0.016513284587740193,-0.016494554234052227,0.0001119444837525677,-0.01651327677007272,-0.01582522357131969,-1.1349130802744952e-05,7.70237601287109e-08,-1.1362012903542639e-05,-1.088859569922836e-05,-1.1349130802744952e-05,7.70237601287109e-08,-1.1362012903542639e-05,-1.088859569922836e-05,-1.026847457627118,19.658436750800032,-42.52,27.62,1.4949762875995058,0.0021606855195304684,1.4913910643783208,1.4985012792040036,0.013974807990762223,0.002245610891960203,0.01042127288785322,0.0174545826571671,0.011976252795630742,0.02679297623488052,2.2060023396885953e-07,0.09571445991917643,1.6587107740078977,0.005508252020736788,1.6501207719285702,1.6682540420293315,-0.5918417615866839,1.7176201507422322,-3.02581787109375,3.03497314453125,33.47421052631581,0.008153649149911629,33.47,33.49,0.13559322033898305,-0.0006315789473685197,0,1,0
0,0.016443549433231185,0.00020765001099528382,0.015825231063251018,0.016513284587740193,-0.01644354164857748,0.00020764991269026645,-0.01651327677007272,-0.01582522357131969,-1.1314031430132389e-05,1.4287418664732526e-07,-1.1362012903542639e-05,-1.088859569922836e-05,-1.1314031430132389e-05,1.4287418664732526e-07,-1.1362012903542639e-05,-1.088859569922836e-05,0.13640677966101677,19.90700394513998,-40.1,30.57,1.4906371807322045,0.0017220114734077076,1.4879157949530082,1.4942881979018994,0.011869859798971255,0.0019484993765192598,0.008968063035627211,0.015467164236995321,0.00415265499450495,0.009739118170474162,9.273323441361114e-07,0.03357663539357844,1.6422332540449434,0.004270998305714673,1.6351953083785162,1.6492637694409407,0.9107484974330011,2.403321318680144,-2.97393798828125,4.72259521484375,33.4788888888889,0.00993807990000062,33.47,33.49,0.16271186440677965,-0.0003302373581011868,0,1,0
0,0.016443075044425,0.00020827516356561082,0.015825231063251018,0.016513284587740193,-0.016443067259995878,0.00020827506496463516,-0.01651327677007272,-0.01582522357131969,-1.1313705025551367e-05,1.4330432466941263e-07,-1.1362012903542639e-05,-1.088859569922836e-05,-1.1313705025551367e-05,1.4330432466941263e-07,-1.1362012903542639e-05,-1.088859569922836e-05,0.5671768707482995,19.651724955601782,-39.43,26.68,1.485565737341734,0.0017767774585309786,1.4825002535036713,1.4876239721957139,0.0069888130408537,0.002356255239436192,0.002965504567612164,0.01013353498911944,0.003161059602924731,0.013025573316250476,8.134015917760085e-08,0.05686687282491182,1.6262493407592227,0.005173062613017478,1.6173792274173664,1.634335355636451,-0.5476007390554726,2.4080137100153727,-3.33709716796875,4.54864501953125,33.478888888888896,0.009938079900000618,33.47,33.49,0.13605442176870747,0.0016511867905059342,0,1,0
0,0.016513284587740228,3.469446951953614e-17,0.016513284587740193,0.016513284587740193,-0.016513276770072718,3.469446951953614e-18,-0.01651327677007272,-0.01651327677007272,-1.1362012903542617e-05,2.202285662861181e-20,-1.1362012903542639e-05,-1.1362012903542639e-05,-1.1362012903542617e-05,2.202285662861181e-20,-1.1362012903542639e-05,-1.1362012903542639e-05,-0.3863389830508482,20.210416331482886,-41.67,32.11,1.479519370890338,0.00261576690365374,1.4743437585682304,1.4856555499882127,0.006182261888650634,0.0038764985111669954,0.0014165709846891226,0.013822001397859232,0.014311193787451352,0.026574563805322846,6.635903675861199e-08,0.08649382191520905,1.605226845981838,0.006830968393468996,1.5938405187830882,1.6162292748821125,0.15620049412729722,2.360757561394989,-3.11431884765625,4.49981689453125,33.478421052631596,0.00987455949436666,33.47,33.49,0.16271186440677965,-0.00042105263157901315,0,1,0
0,0.016513284587740228,3.469446951953614e-17,0.016513284587740193,0.016513284587740193,-0.016513276770072718,3.469446951953614e-18,-0.01651327677007272,-0.01651327677007272,-1.1362012903542617e-05,2.202285662861181e-20,-1.1362012903542639e-05,-1.1362012903542639e-05,-1.1362012903542617e-05,2.202285662861181e-20,-1.1362012903542639e-05,-1.1362012903542639e-05,0.6178644067796616,22.539968609799942,-45.62,33.09,1.4780677673629947,0.001506994364300738,1.4748620432633701,1.4803711146907164,0.021338581502500606,0.0040753061910241365,0.015451569020312942,0.027723913305351986,0.013251968424971835,0.029991580521134292,2.7980638500624266e-07,0.09172950021401438,1.5816863274297175,0.006565820226576316,1.5710941240682865,1.5925475453131086,0.46355472082977817,2.2434165712897527,-2.90069580078125,4.55780029296875,33.47444444444445,0.015713484026367724,33.45,33.49,0.13559322033898305,-0.0016511867905058169,0,1,0
0,0.016513284587740228,3.469446951953614e-17,0.016513284587740193,0.016513284587740193,-0.016513276770072718,3.469446951953614e-18,-0.01651327677007272,-0.01651327677007272,-1.1362012903542617e-05,2.202285662861181e-20,-1.1362012903542639e-05,-1.1362012903542639e-05,-1.1362012903542617e-05,2.202285662861181e-20,-1.1362012903542639e-05,-1.1362012903542639e-05,-0.550372881355933,22.358835060992966,-46.32,30.56,1.474054731649197,0.002014408843337414,1.4713417823126327,1.4776524176617014,0.027043225620207913,0.004658301084736242,0.018302316955659446,0.034324597516562846,0.020566516300863685,0.0636611471978762,3.698568751819842e-07,0.2622045953074871,1.5609370040521031,0.004982846495373635,1.553766764630946,1.5699176599261953,-0.5334702673975942,2.1828899016355474,-3.1280517578125,4.06036376953125,33.470000000000006,0.012977713690460729,33.45,33.49,0.13559322033898305,0.0005614035087717931,0,1,0
0,0.016513284587740228,3.469446951953614e-17,0.016513284587740193,0.016513284587740193,-0.016513276770072718,3.469446951953614e-18,-0.01651327677007272,-0.01651327677007272,-1.1362012903542617e-05,2.202285662861181e-20,-1.1362012903542639e-05,-1.1362012903542639e-05,-1.1362012903542617e-05,2.202285662861181e-20,-1.1362012903542639e-05,-1.1362012903542639e-05,0.758163265306123,21.507143316424155,-44.69,30.68,1.469536252560601,0.0017443056254252507,1.466280312630511,1.4721403395788815,0.01725329363114191,0.004756109134440831,0.008355863493252246,0.02358943672053342,0.008357013775418958,0.02720020361471716,1.4895241701173845e-07,0.11559217500198626,1.5522898737516728,0.0008935084985885317,1.551340561776513,1.5544560536982794,-0.12489820532408305,2.1543062675880886,-2.74810791015625,4.20074462890625,33.46555555555556,0.008314794192829324,33.45,33.47,0.13605442176870747,-0.00016511867905053473,0,1,0
0,0.016513284587740228,3.469446951953614e-17,0.016513284587740193,0.016513284587740193,-0.016513276770072718,3.469446951953614e-18,-0.01651327677007272,-0.01651327677007272,-1.1362012903542617e-05,2.202285662861181e-20,-1.1362012903542639e-05,-1.1362012903542639e-05,-1.1362012903542617e-05,2.202285662861181e-20,-1.1362012903542639e-05,-1.1362012903542639e-05,-1.6860338983050869,22.236583009335195,-47.47,35.55,1.4782716266484592,0.00992635038228961,1.466477941559505,1.491877134902337,0.0406909021524617,0.03272683629539225,0.0035450491488247713,0.08342747132079129,0.047069840442757103,0.14150274069412536,1.7951444353236923e-07,0.5535337991034543,1.5647880059818922,0.006437433678035461,1.5551852085040658,1.5759510880774112,0.723582757613795,1.8632063706482829,-2.32086181640625,3.50189208984375,33.470000000000006,0.018353258709644552,33.45,33.49,0.13559322033898305,4.98626481235158e-17,0,1,0
0,0.016513284587740228,3.469446951953614e-17,0.016513284587740193,0.016513284587740193,-0.016513276770072718,3.469446951953614e-18,-0.01651327677007272,-0.01651327677007272,-1.1362012903542617e-05,2.202285662861181e-20,-1.1362012903542639e-05,-1.1362012903542639e-05,-1.1362012903542617e-05,2.202285662861181e-20,-1.1362012903542639e-05,-1.1362012903542639e-05,0.48203389830508536,22.765897986187483,-46.81,29.86,1.4850242993496898,0.002034768603802072,1.4814396206266875,1.4887822756176792,0.04457892777830161,0.010238515884971058,0.029655418006391272,0.0599445546860382,0.025673027856083233,0.0500867331490516,3.31022055544139e-07,0.15742840330196306,1.5868612483697802,0.005319612921265223,1.5772615253878282,1.5943026108205438,-0.3794609446204526,1.666522094629714,-2.65960693359375,3.1829833984375,33.46222222222223,0.009749960430433753,33.45,33.47,0.13559322033898305,-0.001589267285861397,0,1,0
0,0.016508635577439625,5.636625431888253e-05,0.015825231063251018,0.016513284587740193,-0.016508627761973038,5.6366227634147136e-05,-0.01651327677007272,-0.01582522357131969,-1.1358814138648601e-05,3.878296322531639e-08,-1.1362012903542639e-05,-1.088859569922836e-05,-1.1358814138648601e-05,3.878296322531639e-08,-1.1362012903542639e-05,-1.088859569922836e-05,1.6495932203389825,22.931401559033613,-47.58,29.32,1.4807094570226742,0.0023437268681648833,1.4766063986812619,1.4846991203155586,0.02065351731263587,0.004787018555209085,0.01360474614386289,0.02720369201038611,0.010740770791725893,0.032988620578561896,1.5223083543736138e-07,0.1427795460220066,1.5945032391205547,0.0013300287991903133,1.5913772181209986,1.5957640964439883,-0.33494012532602585,2.4418248081456477,-3.94744873046875,4.28009033203125,33.46333333333334,0.01632993161855385,33.45,33.49,0.13559322033898305,0.0023116615067078385,0,1,0
0,0.01625116895936338,0.00034363648785662156,0.015137177538761842,0.016513284587740193,-0.01625116126578584,0.00034363632517331235,-0.01651327677007272,-0.01513717037256666,-1.1181663492375284e-05,2.3644007274323416e-07,-1.1362012903542639e-05,-1.0415178494914085e-05,-1.1181663492375284e-05,2.3644007274323416e-07,-1.1362012903542639e-05,-1.0415178494914085e-05,-0.6971768707482969,21.087318186256987,-47.9,31.25,1.4770142957947703,0.0018391565194309466,1.473298184055784,1.4799611618284065,0.016572778810660806,0.0015124574845463822,0.012937240858418683,0.018995435048939704,0.01169729753610785,0.028140615580645525,4.350237610140084e-07,0.10215241528169544,1.583067839922941,0.004871921029098969,1.5749208372577663,1.5906898267171903,1.0242929384689923,1.561492384111587,-2.41851806640625,3.79486083984375,33.4584210526316,0.009874559494363151,33.45,33.47,0.13605442176870747,0.0004210526315788636,0,1,0
0,0.016288614049131508,0.0003226584959672938,0.015825231063251018,0.016513284587740193,-0.01628860633782683,0.0003226583432153208,-0.01651327677007272,-0.01582522357131969,-1.1207427693970612e-05,2.2200610515365481e-07,-1.1362012903542639e-05,-1.088859569922836e-05,-1.1207427693970612e-05,2.2200610515365481e-07,-1.1362012903542639e-05,-1.088859569922836e-05,-0.7714915254237297,17.37561353080696,-34.52,29.44,1.4720066908212874,0.002908120783053954,1.465098780488566,1.4756073595746977,0.012239007436605602,0.004472476281115141,0.0049689269738399195,0.018405967989990918,0.0065301563756920795,0.026921339693939072,1.044221430157588e-07,0.11752968341865427,1.5676638152366908,0.0036334066558406488,1.5620368793685895,1.5740378517059663,-0.7837752988166111,2.220618811259165,-3.814697265625,3.96270751953125,33.46777777777778,0.01749779527558133,33.45,33.49,0.13559322033898305,0.0011558307533540365,0,1,0
0,0.016513284587740228,3.469446951953614e-17,0.016513284587740193,0.016513284587740193,-0.016513276770072718,3.469446951953614e-18,-0.01651327677007272,-0.01651327677007272,-1.1362012903542617e-05,2.202285662861181e-20,-1.1362012903542639e-05,-1.1362012903542639e-05,-1.1362012903542617e-05,2.202285662861181e-20,-1.1362012903542639e-05,-1.1362012903542639e-05,-0.8915932203389838,20.355675704673917,-42.92,28.6,1.4681315867005553,0.0015694448014730784,1.465536824449981,1.471576507608728,0.007960630556542912,0.0024598349014698746,0.003437727727796459,0.011428481209019303,0.007380297498209832,0.024319293750025502,2.6263707525453484e-07,0.10505629682819334,1.5554396963399595,0.0038755707866280167,1.5485648728287145,1.561428678688847,0.5069193118263415,1.9849028764973435,-2.74658203125,3.82843017578125,33.46789473684212,0.01104009313863248,33.45,33.49,0.13559322033898305,-0.0015087719298244732,0,1,0
0,0.016513284587740228,3.469446951953614e-17,0.016513284587740193,0.016513284587740193,-0.016513276770072718,3.469446951953614e-18,-0.01651327677007272,-0.01651327677007272,-1.1362012903542617e-05,2.202285662861181e-20,-1.1362012903542639e-05,-1.1362012903542639e-05,-1.1362012903542617e-05,2.202285662861181e-20,-1.1362012903542639e-05,-1.1362012903542639e-05,0.23393220338983034,22.404451785125502,-46.49,27.97,1.4634513162945166,0.002154434093252352,1.4608054859297006,1.4678691423569006,0.008031349271021612,0.0022385929666720026,0.004388574406762812,0.011705632635868945,0.012202462641924372,0.035011633511793046,2.3111189896563022e-07,0.1276503722578023,1.5374957778458616,0.006757219763189657,1.525637615994453,1.5476266528924074,0.292521827974713,1.8388738696126874,-2.20794677734375,4.010009765625,33.47444444444445,0.015713484026367724,33.45,33.49,0.13559322033898305,0.0,0,1,0
0,0.016368184864888766,0.0003027615549135365,0.015825231063251018,0.017201338112229368,-0.016368177115913908,0.0003027614115811098,-0.01720132996882575,-0.01582522357131969,-1.12621766223607e-05,2.0831595769736548e-07,-1.1835430107856916e-05,-1.088859569922836e-05,-1.12621766223607e-05,2.0831595769736548e-07,-1.1835430107856916e-05,-1.088859569922836e-05,-0.12367346938775546,22.342195660090926,-47.3,36.68,1.460426028420972,0.0017929724187433819,1.4559740696511903,1.4629786921482353,0.021952974812839032,0.005477730854781671,0.014672292951630778,0.031838659230002724,0.01973683063153013,0.03943752710754772,3.4110314806046205e-07,0.14732531685877293,1.510253080271398,0.008419457464560047,1.4966404208743194,1.5240578554089952,-0.33497017607203783,3.006706311818954,-4.30755615234375,6.11114501953125,33.475555555555566,0.008958064164777565,33.47,33.49,0.13605442176870747,2.0639834881324176e-05,0,1,0
0,0.016183204856397432,0.0020602355481287157,0.00894469581835927,0.024081873357121114,-0.016183197194995256,0.0020602345727784555,-0.02408186195635605,-0.00894469158378939,-1.1134900596067535e-05,1.4175509879817965e-06,-1.656960215099968e-05,-6.154423656085595e-06,-1.1134900596067535e-05,1.4175509879817965e-06,-1.656960215099968e-05,-6.154423656085595e-06,-1.6060338983050833,98.26752392579817,-312.74,314.89,1.4565238758009724,0.002731380941956594,1.451030334036001,1.4602250470046454,0.03288185870694943,0.006569504307371737,0.02090442411255263,0.04221157777929725,0.02726436743717726,0.0665557930632147,1.394862947368125e-07,0.23659504122795938,1.483870759835261,0.006206358649738674,1.4749005631412573,1.4951369415387732,-0.1790465551333747,2.6009547202374628,-4.50897216796875,4.17633056640625,33.46894736842107,0.012093816097974348,33.45,33.49,0.16271186440677965,-0.00021052631578973098,0,1,0
0,0.016513284587740228,3.469446951953614e-17,0.016513284587740193,0.016513284587740193,-0.016513276770072718,3.469446951953614e-18,-0.01651327677007272,-0.01651327677007272,-1.1362012903542617e-05,2.202285662861181e-20,-1.1362012903542639e-05,-1.1362012903542639e-05,-1.1362012903542617e-05,2.202285662861181e-20,-1.1362012903542639e-05,-1.1362012903542639e-05,2.7735932203389817,20.298138846901452,-41.69,35.58,1.4515188225905202,0.00336136571486079,1.4433320821899462,1.4568069873939589,0.02877117729147836,0.004628991922417405,0.02118274013525541,0.035825974530360544,0.021471787227027948,0.05833812082735512,1.162733126447435e-07,0.23174211067363948,1.4696683812037004,0.002475827367117488,1.4659819191747965,1.4741946899703162,0.050486092089571055,2.2994687951194765,-3.18756103515625,4.46929931640625,33.45444444444444,0.008314794192829322,33.45,33.47,0.13559322033898305,-0.0011558307533537434,0,1,0
0,0.016513284587740228,3.469446951953614e-17,0.016513284587740193,0.016513284587740193,-0.016513276770072718,3.469446951953614e-18,-0.01651327677007272,-0.01651327677007272,-1.1362012903542617e-05,2.202285662861181e-20,-1.1362012903542639e-05,-1.1362012903542639e-05,-1.1362012903542617e-05,2.202285662861181e-20,-1.1362012903542639e-05,-1.1362012903542639e-05,-0.3510169491525423,22.59144901190138,-46.01,37.19,1.44836256743317,0.002801579073264667,1.4447309676165567,1.4534142434188695,0.022159464474927736,0.005972762091090241,0.013093974454008315,0.030339251597680562,0.01298717414843637,0.03276012069351293,1.8923763756006906e-07,0.11818621580622268,1.4617522410362078,0.0025817149649604004,1.4570278322052745,1.4656095145614765,-0.2217086905581188,2.6557493839197095,-3.6285400390625,5.12237548828125,33.456315789473685,0.011337189067650444,33.45,33.49,0.13559322033898305,-0.00014035087719284234,0,1,0
0,0.016513284587740228,3.469446951953614e-17,0.016513284587740193,0.016513284587740193,-0.016513276770072718,3.469446951953614e-18,-0.01651327677007272,-0.01651327677007272,-1.1362012903542617e-05,2.202285662861181e-20,-1.1362012903542639e-05,-1.1362012903542639e-05,-1.1362012903542617e-05,2.202285662861181e-20,-1.1362012903542639e-05,-1.1362012903542639e-05,-0.7461224489795922,20.374202023486706,-46.55,35.87,1.444423166260421,0.002162984041502292,1.4392868605825753,1.4464949007328063,0.01830841014627531,0.0028894364927984175,0.012771506214008244,0.023245165792556477,0.016105084605780428,0.04651410403528451,1.8956549807658263e-07,0.17858246232049219,1.449623670035562,0.004347807955364332,1.4421690713868816,1.4563559344100705,0.6891771226603695,2.4161803972249176,-3.37677001953125,4.425048828125,33.468888888888905,0.01242259987499837,33.45,33.49,0.13605442176870747,-0.00026831785345744893,0,1,0
0,0.016513284587740228,3.469446951953614e-17,0.016513284587740193,0.016513284587740193,-0.016513276770072718,3.469446951953614e-18,-0.01651327677007272,-0.01651327677007272,-1.1362012903542617e-05,2.202285662861181e-20,-1.1362012903542639e-05,-1.1362012903542639e-05,-1.1362012903542617e-05,2.202285662861181e-20,-1.1362012903542639e-05,-1.1362012903542639e-05,-0.06383050847457508,17.650283213891917,-40.04,23.44,1.4405522015278582,0.00200898138451125,1.437310601114478,1.4446843989263982,0.020587539098611763,0.003013380204099342,0.01550424484218589,0.025310581440879682,0.016628474537707823,0.042184606788666756,3.889358956565836e-07,0.13895121195416898,1.432182282923034,0.005564967048113945,1.4229773784741477,1.4412103643945797,0.3763231982664198,2.5085285329260296,-3.07464599609375,5.010986328125,33.465789473684225,0.00815364914990873,33.45,33.47,0.13559322033898305,0.00035087719298238635,0,1,0
0,0.016527231618642033,9.696279749044054e-05,0.016513284587740193,0.017201338112229368,-0.016527223794371767,9.69627515866164e-05,-0.01720132996882575,-0.01651327677007272,-1.1371609198224662e-05,6.671553138906701e-08,-1.1835430107856916e-05,-1.1362012903542639e-05,-1.1371609198224662e-05,6.671553138906701e-08,-1.1835430107856916e-05,-1.1362012903542639e-05,0.8585762711864423,15.694160330564713,-34.56,22.1,1.43503390080206,0.003143307053857452,1.4291044315806918,1.4389749292461096,0.016913526966816625,0.0035899610794845726,0.010752918272696529,0.02251435599573074,0.0073207100563103195,0.0301817290637351,9.129864303458746e-08,0.13176316692002063,1.4133655881220133,0.005198850830918388,1.4049288083603024,1.4219514679967027,-1.6952850786825162,7.082005367461477,-11.0321044921875,9.78851318359375,33.47000000000001,1.4210854715202004e-14,33.47,33.47,0.16271186440677965,0.0,0,1,0
0,0.01658349413105544,0.0002082751635656107,0.016513284587740193,0.017201338112229368,-0.016583486280149554,0.0002082750649646348,-0.01720132996882575,-0.01651327677007272,-1.1410320781533873e-05,1.433043246694121e-07,-1.1835430107856916e-05,-1.1362012903542639e-05,-1.1410320781533873e-05,1.433043246694121e-07,-1.1835430107856916e-05,-1.1362012903542639e-05,-0.8022108843537415,15.00133312249703,-34.52,25.95,1.4306633271529379,0.00247649647082209,1.425553136458678,1.4355773155189477,0.017046596292536183,0.0034597738374540395,0.011492735865055595,0.023942866191221115,0.018532745568238647,0.05335409035989783,2.073342027508751e-07,0.19672417833687422,1.3960502212072052,0.0047440520807788345,1.3884312652783768,1.4039620993983053,0.17854723681882947,3.293914955839904,-7.69195556640625,4.37774658203125,33.45,0.01333333333333305,33.43,33.47,0.13605442176870747,-0.0013209494324043368,0,1,0
0,0.016358823592446736,0.00034794478315587103,0.015137177538761842,0.01788939163671854,-0.01635881584790367,0.00034794461843294205,-0.01788938316757878,-0.01513717037256666,-1.1255735571961864e-05,2.3940440770168907e-07,-1.230884731217119e-05,-1.0415178494914085e-05,-1.1255735571961864e-05,2.3940440770168907e-07,-1.230884731217119e-05,-1.0415178494914085e-05,1.546847457627118,16.873396026031838,-36.76,29.1,1.4281179889933902,0.001388150368806808,1.4247854667414752,1.429785290256748,0.02207948617624047,0.0018531903285897993,0.01834825264487256,0.024616065786032808,0.017668858443382084,0.0414381359687555,6.430046018968127e-07,0.15474382186657382,1.3805077109032933,0.004137926517237362,1.3740251138345037,1.3875808636852227,1.518788586183458,0.8482575026191769,0.018310546875,4.302978515625,33.458421052631586,0.009874559494363151,33.45,33.47,0.18983050847457628,0.0012631578947365908,0,1,0
0,0.016462145474433594,0.00018047503494968077,0.015825231063251018,0.016513284587740193,-0.01646213768097621,0.00018047494950975537,-0.01651327677007272,-0.01582522357131969,-1.1326826489708449e-05,1.2417636630497894e-07,-1.1362012903542639e-05,-1.088859569922836e-05,-1.1326826489708449e-05,1.2417636630497894e-07,-1.1362012903542639e-05,-1.088859569922836e-05,-0.9817966101694913,18.20568212174305,-38.95,23.17,1.4254804226712867,0.001386787778662518,1.4237213604859882,1.4277636790718211,0.021968475087221415,0.0029055037517255375,0.017292104531686954,0.026195213005091235,0.011778678837394176,0.027461900833055854,2.547466905755691e-07,0.09772445725358647,1.3689697843439905,0.002455459574455609,1.365412078998861,1.3733949553594995,-0.5454654912566902,2.4345597969119037,-3.1036376953125,4.90570068359375,33.45,0.0,33.45,33.45,0.13559322033898305,0.0,0,1,0
0,0.01650860395151921,5.655634264419395e-05,0.015825231063251018,0.016513284587740193,-0.0165085961360676,5.655631586946709e-05,-0.01651327677007272,-0.01582522357131969,-1.1358792378343202e-05,3.8913754043673675e-08,-1.1362012903542639e-05,-1.088859569922836e-05,-1.1358792378343202e-05,3.8913754043673675e-08,-1.1362012903542639e-05,-1.088859569922836e-05,0.18532203389830668,22.179354512501238,-43.75,29.94,1.4213644814241502,0.0024667814122736006,1.4147275561034254,1.4252525765715602,0.013202767418271337,0.003651961401829428,0.006155154134546766,0.01802938392887349,0.005296683215266228,0.017545008222060902,1.0745682782475896e-07,0.07600529121266947,1.3637224861866506,0.0006554255552714113,1.3628069569918764,1.3651263554223902,0.4171603370836887,1.9227311200603654,-2.27203369140625,4.5196533203125,33.466842105263176,0.014886458551295105,33.45,33.49,0.13559322033898305,0.00028070175438578437,0,1,0
0,0.016513284587740228,3.469446951953614e-17,0.016513284587740193,0.016513284587740193,-0.016513276770072718,3.469446951953614e-18,-0.01651327677007272,-0.01651327677007272,-1.1362012903542617e-05,2.202285662861181e-20,-1.1362012903542639e-05,-1.1362012903542639e-05,-1.1362012903542617e-05,2.202285662861181e-20,-1.1362012903542639e-05,-1.1362012903542639e-05,-0.2945918367346943,20.125975744379073,-47.01,27.96,1.41817581754585,0.0019792530100447366,1.4147451326246054,1.4232540748577087,0.0026018577157083567,0.001347832992886931,0.000954561344068344,0.0054587892601048625,0.00442074297251428,0.01794673714404282,1.7216143556597618e-07,0.07841339934241912,1.359960183822245,0.002265359242851152,1.3552622551100146,1.3626804228450633,0.18693673107819286,2.472224371611446,-3.55377197265625,4.217529296875,33.44555555555556,0.008314794192832282,33.43,33.45,0.13605442176870747,0.0001651186790505934,0,1,0
0,0.016513284587740228,3.469446951953614e-17,0.016513284587740193,0.016513284587740193,-0.016513276770072718,3.469446951953614e-18,-0.01651327677007272,-0.01651327677007272,-1.1362012903542617e-05,2.202285662861181e-20,-1.1362012903542639e-05,-1.1362012903542639e-05,-1.1362012903542617e-05,2.202285662861181e-20,-1.1362012903542639e-05,-1.1362012903542639e-05,0.2722033898305085,20.159155876512987,-44.8,25.36,1.4158481907112603,0.0016404369305745385,1.4132917397705764,1.419682306007431,0.010082987604008534,0.004571877098376613,0.00480810252814871,0.017223123247542806,0.008545818951290312,0.02812988869784488,2.728934991869103e-07,0.12269274241477197,1.3414825581068044,0.009073432524920145,1.3250048952239508,1.3543504618218174,0.02931022170755467,2.4780536901195,-3.472900390625,4.73785400390625,33.45421052631579,0.008153649149908732,33.45,33.47,0.13559322033898305,-0.001052631578947159,0,1,0
0,0.016513284587740228,3.469446951953614e-17,0.016513284587740193,0.016513284587740193,-0.016513276770072718,3.469446951953614e-18,-0.01651327677007272,-0.01651327677007272,-1.1362012903542617e-05,2.202285662861181e-20,-1.1362012903542639e-05,-1.1362012903542639e-05,-1.1362012903542617e-05,2.202285662861181e-20,-1.1362012903542639e-05,-1.1362012903542639e-05,-1.2797627118644073,18.665817347007064,-40.01,24.79,1.4119967492162875,0.0024477036789067553,1.4074376789730327,1.4161749751033068,0.032562187864696314,0.009115335560194724,0.013344633395033091,0.046660405859346846,0.03826836780991336,0.07555018695078604,2.897118064337789e-07,0.24682158133430726,1.3052821327396458,0.010309458970096328,1.2895604716888949,1.3228614732294617,-0.6138942717322273,2.31490965287953,-3.45611572265625,4.03900146484375,33.441111111111105,0.009938079900000618,33.43,33.45,0.13559322033898305,-0.0013209494324047473,0,1,0
0,0.016513284587740228,3.469446951953614e-17,0.016513284587740193,0.016513284587740193,-0.016513276770072718,3.469446951953614e-18,-0.01651327677007272,-0.01651327677007272,-1.1362012903542617e-05,2.202285662861181e-20,-1.1362012903542639e-05,-1.1362012903542639e-05,-1.1362012903542617e-05,2.202285662861181e-20,-1.1362012903542639e-05,-1.1362012903542639e-05,2.4483050847457632,18.340156400322194,-40.86,29.61,1.406745029229999,0.001983826495807047,1.4031106853879192,1.4113884328315547,0.033776298968885926,0.0061503015566676195,0.02019389594635905,0.04354593998986046,0.01422675118533773,0.04378700656725386,1.9811966656124724e-07,0.18367462511326382,1.2829755225706985,0.002110034222100795,1.2807952960452216,1.2881546577069753,0.3109048103050826,2.2753956713864363,-3.12347412109375,4.339599609375,33.43333333333332,0.015275252316521852,33.41,33.45,0.13559322033898305,-0.0002683178534572143,0,1,0
0,0.01635882359244671,0.00045254757384404425,0.015825231063251018,0.01788939163671854,-0.01635881584790368,0.00045254735960038975,-0.01788938316757878,-0.01582522357131969,-1.1255735571961878e-05,3.1137665836028607e-07,-1.230884731217119e-05,-1.088859569922836e-05,-1.1255735571961878e-05,3.1137665836028607e-07,-1.230884731217119e-05,-1.088859569922836e-05,-1.8315986394557813,22.800126786006206,-82.63,38.24,1.4028665270636314,0.0018384064530085633,1.399146044724468,1.4059103254685386,0.0077411235780627105,0.0045760527481182416,0.003129783392083716,0.018028427046225565,0.0011531223856536138,0.0048868781323882825,1.0015175788691266e-07,0.021886388681602552,1.2936684765527957,0.004868230475727764,1.2850118967635096,1.2997972066310008,0.08756746987039729,2.675132300155264,-3.95660400390625,4.88128662109375,33.438421052631575,0.009874559494366657,33.43,33.45,0.16326530612244897,0.0009824561403510308,0,1,0
0,0.01602181778453365,0.000310830898498891,0.015825231063251018,0.016513284587740193,-0.016021810199534827,0.0003108307513463011,-0.01651327677007272,-0.01582522357131969,-1.1023857757603858e-05,2.1386809273463025e-07,-1.1362012903542639e-05,-1.088859569922836e-05,-1.1023857757603858e-05,2.1386809273463025e-07,-1.1362012903542639e-05,-1.088859569922836e-05,1.498203389830509,18.37393274638835,-39.04,30.64,1.4024284286133153,0.001729771635376158,1.3980276083622352,1.4051304359248578,0.011756865293133068,0.010774967627992564,0.0033975820838072347,0.036213634712616266,0.031530603721647316,0.0627796961835887,3.526273282539183e-07,0.2079954017105401,1.2870477559402635,0.0118987308803927,1.2616733880055928,1.2997442317016343,-0.06456650305785565,1.9390187447054683,-4.23126220703125,3.68194580078125,33.43,0.018856180831644215,33.41,33.45,0.10847457627118644,0.0026418988648094946,0,1,0
0,0.018456570893392053,0.005566672984678008,0.008256642293870096,0.036466836797926255,-0.018456562155740045,0.005566670349321119,-0.03646681953391059,-0.00825663838503636,-1.2699096629241064e-05,3.830165340254043e-06,-2.5091111828656657e-05,-5.681006451771319e-06,-1.2699096629241064e-05,3.830165340254043e-06,-2.5091111828656657e-05,-5.681006451771319e-06,-5.9451186440677946,23.764243384336716,-73.2,39.77,1.3997339564982805,0.0013517500207163935,1.398016308038066,1.4023202531395191,0.08519193897212085,0.03127764306820211,0.040475407738601976,0.13459981800001597,0.09723147522765738,0.14628200075302022,1.0882551667812379e-05,0.475878717139794,1.2022537214720463,0.03508011090749246,1.1430472199914576,1.2567918172152197,0.15247903449955413,1.901423856786768,-4.09088134765625,3.466796875,33.43526315789473,0.014278589438160691,33.41,33.45,0.13559322033898305,-0.000701754385965022,0,1,0
0,0.037103403323984305,0.0023809030503130725,0.028898248028545334,0.04472347909179635,-0.03710338575860726,0.0023809019231534096,-0.04472345791894695,-0.02889823434762726,-2.5529103255777364e-05,1.638187184142943e-06,-3.0772118280427976e-05,-1.9883522581199616e-05,-2.5529103255777364e-05,1.638187184142943e-06,-3.0772118280427976e-05,-1.9883522581199616e-05,5.987423728813564,75.79494805941171,-135.33,239.13,1.377548633266276,0.014787357050014948,1.360727460195831,1.4042000126854213,0.11060202057036604,0.02963421179545111,0.07759597403100833,0.15568402749662777,0.0593278352586362,0.13988003699583837,6.191116286302645e-08,0.5795899037558363,1.088739691582342,0.026314395441503158,1.051945447534192,1.1364264392204793,0.1221900913902517,2.2324853056200165,-4.156494140625,4.23736572265625,33.425555555555555,0.010657403385141043,33.41,33.45,0.05423728813559322,-0.00028895768833853846,0,1,0
0,0.03654640761368342,0.004175263938016788,0.022705766308142764,0.06054871015504737,-0.036546390311997766,0.004175261961376415,-0.06054868149026664,-0.022705755558849988,-2.5145860757046806e-05,2.872802348156897e-06,-4.166071397965634e-05,-1.5622767742371126e-05,-2.5145860757046806e-05,2.872802348156897e-06,-4.166071397965634e-05,-1.5622767742371126e-05,-4.20013605442177,80.39093101275255,-181.92,155.1,1.362998600761258,0.005757805744256094,1.3522745334882866,1.3715140562587964,0.09505068103560982,0.02107937375984632,0.06588390660531178,0.1292733671931632,0.06310990368631414,0.18042607661361315,9.374418907803772e-08,0.7530016284564836,1.0448182034621467,0.002507112018526326,1.0419727760692254,1.0496156864124202,0.03459494995420091,1.5535347753089594,-2.508544921875,3.18756103515625,33.45444444444445,0.00831479419282933,33.45,33.47,0.10884353741496598,-0.0006604747162021389,0,1,0
0,0.037154890322415354,7.632783294297951e-17,0.03715489032241543,0.03715489032241543,-0.03715487273266373,1.1102230246251565e-16,-0.037154872732663616,-0.037154872732663616,-2.556452903297102e-05,8.809142651444724e-20,-2.5564529032970932e-05,-2.5564529032970932e-05,-2.556452903297102e-05,8.809142651444724e-20,-2.5564529032970932e-05,-2.5564529032970932e-05,5.6999999999999975,29.730689137828087,-57.57,54.4,1.3513863052967805,0.001738511241153773,1.3480349974322843,1.3547433776318236,0.030593392170958654,0.012638654021005292,0.012111859919367491,0.05874184674793161,0.006572444113507458,0.02158566273227983,2.6431375910185295e-07,0.09308052878007345,1.0624935072867103,0.006261040557341995,1.0507818613208437,1.0697177141398044,-0.13626373139563625,1.9298944250782128,-2.68096923828125,3.78875732421875,33.45,0.0,33.45,33.45,0.13559322033898305,0.0,0,1,0
0,0.03162237830917594,0.007334501698536765,0.01926549868569689,0.04816374671424223,-0.031622363338608635,0.007334498226259934,-0.0481637239127121,-0.01926548956508484,-2.1757868247260227e-05,5.046524965826574e-06,-3.313920430199936e-05,-1.3255681720799745e-05,-2.1757868247260227e-05,5.046524965826574e-06,-3.313920430199936e-05,-1.3255681720799745e-05,5.946813559322031,35.25920150632378,-54.45,124.98,1.3503124374552378,0.009087016453913124,1.343512847735351,1.3784539436660108,0.034629608360444916,0.04617743306178151,0.00624975192376022,0.16942071404694603,0.12197602216510613,0.3295635070401063,7.755278944032717e-07,1.3441937919907705,1.0541578577377935,0.012371387053564078,1.0301696614577485,1.0693329886750933,0.8985002773946537,2.7594494461981065,-3.021240234375,6.0882568359375,33.45,0.0,33.45,33.45,0.08135593220338982,0.0,0,1,0
0,0.02592753044646032,0.011268758882070653,0.0013761070489783493,0.059860656630558194,-0.02590892213953133,0.011311443702380738,-0.05986062829151361,0.00137610639750606,-1.7826716754347733e-05,7.782875021937885e-06,-4.1187296775342064e-05,9.468344086285532e-07,-1.7826716754347733e-05,7.782875021937885e-06,-4.1187296775342064e-05,9.468344086285532e-07,-12.579661016949157,65.00201004887128,-159.58,207.28,1.3872241061911326,0.01015284629894445,1.3700846565823437,1.403031486138199,0.24794170723615813,0.034262155883498915,0.18701208933017593,0.29720077581899673,0.17961938537648064,0.4232419060891034,8.132734219401527e-08,1.5404231634416732,0.988504104474456,0.023585164316015594,0.9496594823284565,1.0263867145592118,-1.05145267458175,1.9267185470095105,-3.85589599609375,2.78472900390625,33.445789473684215,0.008153649149911629,33.43,33.45,0.13559322033898305,0.001052631578947533,0,1,0
0,0.02632389810698718,0.009882626639105213,0.012384963440805145,0.05435622843464479,-0.026323885644809836,0.009882621960503057,-0.054356202701489366,-0.01238495757755454,-1.811223372152035e-05,6.799769651991068e-06,-3.739995914082785e-05,-8.521509677656977e-06,-1.811223372152035e-05,6.799769651991068e-06,-3.739995914082785e-05,-8.521509677656977e-06,-0.11476190476191084,83.30657685556581,-198.13,164.79,1.3745487113067325,0.012717273808525553,1.3564189729843377,1.3957668875833191,0.27288555784947,0.05185756369493348,0.201667107797514,0.3548007438486608,0.29775232556771825,0.5189763192492984,1.8582378658038579e-07,1.8617667405747866,0.9157552373363136,0.016673071759279037,0.8911423835746635,0.9455181387796527,0.49743321042498645,2.085168541520195,-3.07464599609375,4.02679443359375,33.43777777777778,0.011811273125261491,33.43,33.47,0.08163265306122448,0.0013415892672859469,0,1,0
0,0.03060668024921572,0.0071176673019568105,0.018577445161207715,0.0460995861407747,-0.030606665759497047,0.007117663932333049,-0.046099564316453005,-0.018577436366331808,-2.105901427898678e-05,4.897331436290827e-06,-3.1718952689056526e-05,-1.2782264516485466e-05,-2.105901427898678e-05,4.897331436290827e-06,-3.1718952689056526e-05,-1.2782264516485466e-05,0.19362711864406645,57.125894589115376,-112.58,164.26,1.3806622345323516,0.0075287753954822656,1.3640194492186255,1.3925770304806089,0.33348611516181875,0.024631727022862034,0.2852416865654879,0.37829725880391507,0.19941944473468498,0.47483328278054143,1.5030078692745974e-07,1.6855488395853504,0.8767209255442161,0.005825119940625756,0.8706011405764718,0.8889843749037794,-0.024806417839107087,1.656220382305883,-2.67791748046875,2.6397705078125,33.45736842105263,0.009647527778852482,33.45,33.47,0.16271186440677965,0.0002105263157894318,0,1,0
0,0.029511917388224857,0.00808087327621195,0.013761070489783492,0.05573233548362315,-0.029511903416785362,0.008080869450590228,-0.05573230909899543,-0.013761063975060599,-2.0305759547209663e-05,5.560068074184243e-06,-3.8346793549456406e-05,-9.468344086285531e-06,-2.0305759547209663e-05,5.560068074184243e-06,-3.8346793549456406e-05,-9.468344086285531e-06,2.027050847457627,65.16322604759235,-136.12,150.49,1.376771627471847,0.013919176932174227,1.358136433271063,1.4050550192392532,0.3154384167366955,0.04050970659695295,0.25299420341175394,0.37686374921176335,0.27553365308158906,0.5423073415223575,7.95998520430885e-08,1.6434450972161168,0.878463905011922,0.0064837798648287575,0.8707483129335813,0.891289226451806,-0.698992675629751,2.488198535286761,-5.01556396484375,3.9703369140625,33.44111111111111,0.009938079900000618,33.43,33.45,0.10847457627118644,-0.0009907120743035606,0,1,0
0,0.02618347902035673,0.008172264844412885,0.014449124014272667,0.05091596081219893,-0.026183466624656135,0.008172260975524847,-0.05091593670772422,-0.01444911717381363,-1.8015617965537848e-05,5.622950305254434e-06,-3.5032873119256466e-05,-9.941761290599808e-06,-1.8015617965537848e-05,5.622950305254434e-06,-3.5032873119256466e-05,-9.941761290599808e-06,1.3584693877551068,74.0018683899822,-189.97,172.73,1.3760580092437158,0.007198301889268535,1.3649088213461547,1.3883260397621295,0.2809082095999856,0.03236175129942869,0.23783873910025222,0.35000600888718414,0.15386111392524027,0.2788824795054955,5.060448744487189e-07,0.9478352655988118,0.9138006984611964,0.012898421432243684,0.8933908691072272,0.9352885663394057,1.2347403590199966,1.81430616033618,-4.27093505859375,4.09088134765625,33.4588888888889,0.009938079899997088,33.45,33.47,0.05442176870748299,0.00033023735810106946,0,1,0
0,0.034978394479643585,0.003408801669450762,0.028898248028545334,0.043347372042818,-0.034978377920281585,0.003408800055666549,-0.04334735152144089,-0.02889823434762726,-2.4066984815242108e-05,2.345435782210877e-06,-2.9825283871799426e-05,-1.9883522581199616e-05,-2.4066984815242108e-05,2.345435782210877e-06,-2.9825283871799426e-05,-1.9883522581199616e-05,-1.065254237288136,83.50951326616813,-170.93,242.75,1.3581495798559178,0.007755483855258228,1.3451993710022976,1.369169898595652,0.16325609737635136,0.03150092170205356,0.10445313117713816,0.22020177444302308,0.0781749085814016,0.22878557569025382,1.0015522011741496e-07,0.8272841516218232,0.9577456293645099,0.011201230354370506,0.937818253702981,0.9742384710025069,-0.79285642941004,1.4884712830824265,-3.2806396484375,2.42462158203125,33.46473684210526,0.014278589438157603,33.45,33.49,0.13559322033898305,0.0001403508771932537,0,1,0
0,0.03443986830686354,0.0028468042899308806,0.027522140979566984,0.04541153261628553,-0.03443985200244899,0.0028468029422057074,-0.045411511117699976,-0.027522127950121197,-2.3696450334865964e-05,1.958751870604175e-06,-3.124553548474225e-05,-1.8936688172571062e-05,-2.3696450334865964e-05,1.958751870604175e-06,-3.124553548474225e-05,-1.8936688172571062e-05,3.33413559322034,40.14697420916184,-112.0,68.8,1.3423387128128152,0.0025703458201999383,1.336895357982076,1.3460957353144132,0.07294985300841551,0.008718200000557105,0.06265032929939779,0.095504778478291,0.050399521443618006,0.09903993041722528,3.108729282885747e-07,0.39781754521805657,0.983277786501399,0.003907002809892794,0.9755683896444669,0.9882412155664264,0.6995196080599888,2.1346208140133367,-2.642822265625,4.44488525390625,33.48000000000001,0.010000000000001563,33.47,33.49,0.13559322033898305,-0.00035087719298251103,0,1,0
0,0.03216533211081364,0.0016831687599657024,0.028210194504056162,0.03715489032241543,-0.03216531688320289,0.0016831679631252154,-0.037154872732663616,-0.02821018114887423,-2.2131449170392584e-05,1.1581091010669277e-06,-2.5564529032970932e-05,-1.941010537688534e-05,-2.2131449170392584e-05,1.1581091010669277e-06,-2.5564529032970932e-05,-1.941010537688534e-05,-2.1474915254237286,50.40287910608016,-146.72,147.46,1.3428407199477321,0.0040381683738246145,1.3378007477361755,1.35301109195564,0.07015360767292914,0.011578953232439808,0.05511463123141108,0.09024664984661832,0.047731075063330915,0.12191221711562795,1.2782456848547952e-07,0.5172058024258558,0.9881399207330617,0.0009164675433722898,0.9860032482013783,0.9889943663031748,-0.4618424635667067,1.751080821585062,-2.825927734375,3.36761474609375,33.470000000000006,0.012977713690460729,33.45,33.49,0.10847457627118644,0.0011228070175438108,0,1,0
0,0.035062645931621755,0.002184498606959684,0.027522140979566984,0.03853099737139378,-0.035062629332373835,0.002184497572781195,-0.03853097913016968,-0.027522127950121197,-2.412495426883161e-05,1.5030505426203286e-06,-2.651136344159949e-05,-1.8936688172571062e-05,-2.412495426883161e-05,1.5030505426203286e-06,-2.651136344159949e-05,-1.8936688172571062e-05,1.55037414965986,42.57139577574814,-102.09,85.61,1.331108760029741,0.004639186435916777,1.3266652100836573,1.3427750698090553,0.03162856040742487,0.011202913376234695,0.01883936159204405,0.05614015487519784,0.01208668741465466,0.035023588790544236,7.825832848418202e-08,0.13168401672096985,0.9805738802166702,0.003370524586002637,0.9745884969474967,0.9855675771409835,0.45193560957612827,2.231720112487954,-2.91290283203125,4.217529296875,33.47666666666667,0.01632993161855449,33.45,33.49,0.08163265306122448,-0.001155830753354095,0,1,0
0,0.036406399664018395,0.0006294389114000757,0.03371462269996956,0.03853099737139378,-0.03640638242861469,0.0006294386134130773,-0.03853097913016968,-0.03371460673889847,-2.5049527885034476e-05,4.330872513775392e-07,-2.651136344159949e-05,-2.3197443011399553e-05,-2.5049527885034476e-05,4.330872513775392e-07,-2.651136344159949e-05,-2.3197443011399553e-05,-3.6850508474576262,24.191524610150477,-55.9,32.15,1.3240136319694944,0.002527940945072142,1.3199184584660615,1.3288464601473187,0.016789452291991778,0.003629379683179262,0.010727137368025302,0.02353767019325704,0.007992984795356393,0.02879594835291689,3.3389713854914405e-07,0.12807669368666533,0.9653660534159053,0.005328068449168597,0.9562969725599502,0.973759068073702,0.2381488052254575,2.241561025966633,-2.80609130859375,4.443359375,33.477368421052645,0.009647527778855905,33.47,33.49,0.13559322033898305,-0.0004912280701755154,0,1,0
0,0.03544177746552397,0.0016038539973657526,0.032338515650991204,0.039219050895882956,-0.03544176068678876,0.0016038532380742172,-0.03921903232892271,-0.03233850034139241,-2.4385816809984366e-05,1.1035363507873688e-06,-2.6984780645913764e-05,-2.2250608602771e-05,-2.4385816809984366e-05,1.1035363507873688e-06,-2.6984780645913764e-05,-2.2250608602771e-05,-1.1896949152542373,47.995949273731256,-94.36,102.41,1.316742938490929,0.002982821117116466,1.3101165652445586,1.3219299816447823,0.008860936977508511,0.0041646137571204585,0.0034320570169200136,0.01765117518632313,0.010898372363826918,0.03186875029403375,1.1964308506418053e-07,0.12236493083332732,0.9450279824828383,0.006535124149279981,0.9337241042776139,0.9552137685696147,-0.8211666702521428,2.0871832506297334,-3.60260009765625,3.448486328125,33.48555555555556,0.008314794192832283,33.47,33.49,0.13559322033898305,0.0006604747162023736,0,1,0
0,0.035885710510351,0.0018111042925466176,0.03096240860201286,0.041283211469350475,-0.03588569352145019,0.0018111034351392936,-0.041283191925181796,-0.03096239394388635,-2.469126621690473e-05,1.2461355118201924e-06,-2.8405032258856593e-05,-2.1303774194142445e-05,-2.469126621690473e-05,1.2461355118201924e-06,-2.8405032258856593e-05,-2.1303774194142445e-05,2.35674576271186,48.221143940902735,-128.86,125.4,1.313063361076341,0.0027156511354512317,1.3078760220583578,1.3174574943856765,0.021684430793674454,0.003194636579754265,0.016899327343442284,0.027621318386344323,0.028213626066502025,0.06871721731853034,4.4769055773663524e-07,0.2570111419347338,0.9168408760726565,0.010061444551664196,0.8991905153338433,0.9321969519461297,0.7686230324825958,2.3517445471810494,-2.923583984375,4.20989990234375,33.49222222222223,0.004157397096414662,33.49,33.5,0.10847457627118644,-0.00016511867905053473,0,1,0
0,0.03509541038516892,0.002718655995608691,0.023393819832631935,0.042659318518328826,-0.03509539377040961,0.0027186547085510837,-0.04265929832268786,-0.02339380875760302,-2.414749794522754e-05,1.8705790685235593e-06,-2.935186666748515e-05,-1.6096184946685404e-05,-2.414749794522754e-05,1.8705790685235593e-06,-2.935186666748515e-05,-1.6096184946685404e-05,2.514761904761908,32.421968350888754,-66.72,91.62,1.3108961421992211,0.005420978011701039,1.3058254161833187,1.3300748955239352,0.058421378611953026,0.03137082008742048,0.03453024452725662,0.14580405253254003,0.09188962756979231,0.25885268876558876,7.530208545603045e-08,1.1566647261334146,0.8718064798777005,0.015708834773948674,0.8456370023824991,0.8967523969528857,-0.6201715986858043,2.6025347159733725,-3.78570556640625,4.56695556640625,33.4942105263158,0.0049372797471815754,33.49,33.5,0.13605442176870747,-0.00035087719298238635,0,1,0
0,0.03509541038516886,0.0003543708415553993,0.03371462269996956,0.03715489032241543,-0.035095393770409586,0.0003543706737902673,-0.037154872732663616,-0.03371460673889847,-2.414749794522756e-05,2.4382587564565817e-07,-2.5564529032970932e-05,-2.3197443011399553e-05,-2.414749794522756e-05,2.4382587564565817e-07,-2.5564529032970932e-05,-2.3197443011399553e-05,-1.8137627118644026,90.57475602073062,-237.4,262.15,1.3101340931089784,0.010911227275289825,1.3033735816156626,1.339114815011015,0.10527242984093749,0.02051348527576765,0.08849348509133519,0.14905002207555462,0.055075242047936485,0.0784381867212422,3.746998089582121e-08,0.26188158715317034,0.8216743029804673,0.011808499987169657,0.8046507657039375,0.8427632956785648,0.7250145211783471,2.1320644381637748,-2.62298583984375,4.071044921875,33.49000000000001,0.00816496580927757,33.47,33.5,0.13559322033898305,-0.0012383900928792451,0,1,0
0,0.03508143172834664,0.00015969874825629582,0.034402676224458736,0.03577878327343708,-0.035081415120205094,0.00015969867265221472,-0.03577876633515756,-0.0344026599376515,-2.4137879890240112e-05,1.0988118255496929e-07,-2.461769462434238e-05,-2.367086021571383e-05,-2.4137879890240112e-05,1.0988118255496929e-07,-2.461769462434238e-05,-2.367086021571383e-05,1.4788135593220337,26.497254842446957,-55.14,39.24,1.3003365235424154,0.002533862607214217,1.2938912250323147,1.3032825270403057,0.08512026498897053,0.011050674800881857,0.05823182511828341,0.09790854288198728,0.041273431435951594,0.09041895256940663,4.055669384772642e-07,0.3828483606134023,0.8015199527470902,0.0023068305295201306,0.7990529237519457,0.8069847993705479,-0.5401493006249516,1.7027394132282585,-2.850341796875,3.03802490234375,33.48789473684211,0.006137844099838119,33.47,33.49,0.16271186440677965,0.0005964912280702686,0,1,0
0,0.03497371384342249,0.0014047680261576588,0.03096240860201286,0.04197126499383966,-0.03497369728627647,0.0014047673611167785,-0.04197124512393483,-0.03096239394388635,-2.4063764290042705e-05,9.665546763202525e-07,-2.8878449463170872e-05,-2.1303774194142445e-05,-2.4063764290042705e-05,9.665546763202525e-07,-2.8878449463170872e-05,-2.1303774194142445e-05,0.017118644067795945,28.939151139018243,-60.53,50.33,1.29714653678839,0.0018968672853859115,1.2933244699737794,1.3000033926804886,0.05208427853719277,0.010025570976894991,0.03767985246218202,0.0684844711081515,0.03379545562924849,0.0748566062747999,3.975465351357954e-07,0.2858481889885325,0.8220273775818666,0.008609887720448439,0.8083352415572308,0.8360221153159559,0.709023329178221,2.0780153800119057,-2.83660888671875,4.14886474609375,33.49,0.0,33.49,33.49,0.13559322033898305,0.0,0,1,0
0,0.03438395367957464,0.00128396258888574,0.030274355077523685,0.036466836797926255,-0.034383937401631,0.0012839619810361916,-0.03646681953391059,-0.03027434074513332,-2.3657978114916156e-05,8.834341481292302e-07,-2.5091111828656657e-05,-2.083035698982817e-05,-2.3657978114916156e-05,8.834341481292302e-07,-2.5091111828656657e-05,-2.083035698982817e-05,1.0098299319727908,34.12073537636811,-90.79,71.84,1.293729273814582,0.0023801001513934963,1.2899044070800092,1.298515395103029,0.01558151333123938,0.009123777196261212,0.004606754199184113,0.03440402715745467,5.154866795650187e-07,7.055804804390964e-07,9.151508914562179e-08,3.0701014074874244e-06,0.8450067037782347,0.003372782545456424,0.8374927081813923,0.8480790713187205,-0.3309174151929377,1.8460493809566805,-3.13873291015625,2.94036865234375,33.480000000000004,0.016666666666666434,33.45,33.49,0.08163265306122448,0.001630546955624258,0,1,0
0,0.03462582871888762,0.0003220928818221825,0.034402676224458736,0.035090729748947905,-0.03462581232643623,0.0003220927293379819,-0.03509071313640453,-0.0344026599376515,-2.3824400930626556e-05,2.216169327160919e-07,-2.4144277420028106e-05,-2.367086021571383e-05,-2.3824400930626556e-05,2.216169327160919e-07,-2.4144277420028106e-05,-2.367086021571383e-05,-0.9957288135593223,25.909967574720515,-57.54,32.1,1.2891937248171665,0.0016354931084688951,1.2846007037308163,1.2915384830413374,0.003159695229999358,0.0008158784009589191,0.0016958476248857175,0.004265797714812045,0.00193879565653563,0.008220681977707627,1.9973979026310928e-07,0.03681619470756389,0.8399216828346103,0.005322253178315438,0.8301858901757428,0.8472062733960357,-0.25917791551159275,1.7140899039108175,-2.76031494140625,3.54461669921875,33.48473684210527,0.01186255544166894,33.47,33.5,0.13559322033898305,3.508771929836329e-05,0,1,0
0,0.032141928929708574,0.0015828995475092155,0.029586301553034506,0.035090729748947905,-0.032141913713177254,0.0015828987981378695,-0.03509071313640453,-0.029586287546380288,-2.2115346544395482e-05,1.0891185813610876e-06,-2.4144277420028106e-05,-2.035693978551389e-05,-2.2115346544395482e-05,1.0891185813610876e-06,-2.4144277420028106e-05,-2.035693978551389e-05,-3.02271186440678,26.0192860042549,-60.82,38.31,1.286353991776203,0.0009100261895997298,1.2848400478781017,1.2881024439264082,0.011771608313196597,0.004374103135951935,0.002942737289109423,0.018137877618244057,0.013825043674006252,0.032472914368078566,4.7452791551716444e-07,0.12553587198029464,0.8186519361306173,0.0059766710159791635,0.8095556381625078,0.8289157115327955,0.6735271154410196,1.9544488584012283,-2.71148681640625,3.92913818359375,33.49444444444445,0.004969039949998544,33.49,33.5,0.10847457627118644,0.0004953560371516042,0,1,0
0,0.035216253027064146,0.0014151559864144904,0.031650462126502035,0.04059515794486131,-0.03521623635509592,0.0014151553164557754,-0.04059513872642877,-0.03165044714263938,-2.4230644072166518e-05,9.73702142219753e-07,-2.7931615054542318e-05,-2.177719139845672e-05,-2.4230644072166518e-05,9.73702142219753e-07,-2.7931615054542318e-05,-2.177719139845672e-05,5.816779661016948,31.970552607613715,-64.75,82.11,1.2822814949787658,0.001938887150102669,1.2773816623908203,1.2847839816485076,0.011158096890326711,0.002431637281480769,0.006747263455741573,0.014432195166207473,0.006160830225764471,0.02613491760619228,1.2992720466176166e-07,0.11704189483142412,0.8024059536835545,0.0035176986515256486,0.7970532635163747,0.8086930668282057,-0.6955797559865947,2.046301920843372,-3.36151123046875,3.60260009765625,33.492631578947375,0.00440347382386268,33.49,33.5,0.13559322033898305,5.263157894735795e-05,0,1,0
0,0.03501583956941162,0.0010375398558991633,0.03096240860201286,0.03853099737139378,-0.035015822992322566,0.0010375393647102948,-0.03853097913016968,-0.03096239394388635,-2.4092749016837417e-05,7.138822787211051e-07,-2.651136344159949e-05,-2.1303774194142445e-05,-2.4092749016837417e-05,7.138822787211051e-07,-2.651136344159949e-05,-2.1303774194142445e-05,-0.5736394557823116,30.096169835963806,-68.99,41.67,1.2774253359985772,0.001497687622805729,1.2750451344573246,1.2805541210231406,0.004353140287409251,0.0016779985261114795,0.0025542385856249425,0.008384067774540323,0.0013963552058535533,0.0056013607392628555,1.979935424223367e-07,0.024483477051446774,0.7921565137765869,0.0027328745760245863,0.7875012502558653,0.7965388105462287,0.6224634629621103,2.2210588449386974,-3.28521728515625,3.87115478515625,33.49611111111111,0.0048749802152168766,33.49,33.5,0.13605442176870747,-0.00013415892672855948,0,1,0
0,0.03536220664976669,0.00086646149596756,0.032338515650991204,0.03853099737139378,-0.03536218990870163,0.0008664610857700722,-0.03853097913016968,-0.03233850034139241,-2.4331067881594275e-05,5.961713216591214e-07,-2.651136344159949e-05,-2.2250608602771e-05,-2.4331067881594275e-05,5.961713216591214e-07,-2.651136344159949e-05,-2.2250608602771e-05,-1.919864406779663,21.78649491450106,-43.36,38.83,1.2743810980209673,0.0016785243182864363,1.271715148566834,1.2785270815305434,0.001355855308888717,0.0008208382090190016,0.00037427804126616905,0.0030444150949800143,7.063003171884583e-07,4.4196745220596533e-07,2.046519834153493e-07,1.8044894300513897e-06,0.780595490782876,0.004017424723414284,0.773702576752446,0.7868850962444717,-0.5269999539585918,1.5945128632014443,-2.99835205078125,3.18450927734375,33.48473684210527,0.013126277803516457,33.47,33.5,0.13559322033898305,0.0013859649122806752,0,1,0
0,0.034876875275120116,0.000952627474406053,0.028898248028545334,0.036466836797926255,-0.03487685876381909,0.0009526270234161379,-0.03646681953391059,-0.02889823434762726,-2.399713423490343e-05,6.554580706800484e-07,-2.5091111828656657e-05,-1.9883522581199616e-05,-2.399713423490343e-05,6.554580706800484e-07,-2.5091111828656657e-05,-1.9883522581199616e-05,-2.325762711864408,26.347577909675227,-67.88,37.7,1.2702221160888223,0.001748365121626573,1.2668655725385825,1.2724206816924648,0.0011036385082467714,0.0004606521556839654,0.00029186441372725056,0.0017151259155260379,0.0009501083029363431,0.003912533752488034,1.540534487337597e-07,0.01708189670724456,0.7651681355397469,0.004832485926939269,0.7570396957710248,0.7728616607252123,0.7428322228962244,2.093544787684605,-2.78472900390625,4.24652099609375,33.49777777777778,0.004157397096414665,33.49,33.5,0.08135593220338982,0.00041279669762633685,0,1,0
0,0.034397995588237675,0.0015510360064934338,0.028898248028545334,0.037842943846904606,-0.034397979303646374,0.0015510352722068236,-0.03784292593141665,-0.02889823434762726,-2.3667639690514395e-05,1.0671947804206809e-06,-2.6037946237285214e-05,-1.9883522581199616e-05,-2.3667639690514395e-05,1.0671947804206809e-06,-2.6037946237285214e-05,-1.9883522581199616e-05,-1.029149659863948,40.16337307836611,-91.5,90.29,1.265898185512653,0.0021997181155286763,1.2623075117697646,1.2712025889972358,0.0014018598580269905,0.0024345317072853073,0.00012109831794375989,0.00848921649935941,0.005502155671310727,0.022681473406718472,1.4619987955249297e-07,0.09902026606452081,0.7471734522840796,0.005429745213652208,0.7382910924771727,0.7560260930710274,-0.48453943900967356,2.0326899049008467,-3.25775146484375,3.46527099609375,33.50222222222222,0.015475986974648772,33.49,33.53,0.13605442176870747,0.0010732714138285346,0,1,0
