,net_acc_mean,net_acc_std,net_acc_min,net_acc_max,ACC_x_mean,ACC_x_std,ACC_x_min,ACC_x_max,ACC_y_mean,ACC_y_std,ACC_y_min,ACC_y_max,ACC_z_mean,ACC_z_std,ACC_z_min,ACC_z_max,BVP_mean,BVP_std,BVP_min,BVP_max,EDA_mean,EDA_std,EDA_min,EDA_max,EDA_phasic_mean,EDA_phasic_std,EDA_phasic_min,EDA_phasic_max,EDA_smna_mean,EDA_smna_std,EDA_smna_min,EDA_smna_max,EDA_tonic_mean,EDA_tonic_std,EDA_tonic_min,EDA_tonic_max,Resp_mean,Resp_std,Resp_min,Resp_max,TEMP_mean,TEMP_std,TEMP_min,TEMP_max,BVP_peak_freq,TEMP_slope,0,1,2
0,0.030728376790962016,0.005821477205395116,0.010320802867337619,0.05435622843464479,0.030728362243630267,0.005821474449409609,0.010320797981295449,0.054356202701489366,2.1142747934171643e-05,4.005484116375306e-06,7.101258064714148e-06,3.739995914082785e-05,2.1142747934171643e-05,4.005484116375306e-06,7.101258064714148e-06,3.739995914082785e-05,-1.0177288135593225,86.77956457830975,-309.08,170.7,1.5843662539191259,0.040866634660160356,1.529819871036183,1.678399464596154,3.535454456657758,0.43541111265188837,2.809798264098742,4.3199867154987155,2.0235465874320493,1.370555202454308,0.017011056179427442,5.408451786567355,0.08730383999457396,0.3245973746902576,-0.411534281118631,0.6472118007266499,0.8765618031046385,2.005736184521076,-3.082275390625,4.02679443359375,35.82000000000001,0.00999999999999801,35.81,35.83,0.08135593220338982,0.0016718266253866645,0,1,0
0,0.02903306932726275,0.00030623535835561967,0.028210194504056162,0.029586301553034506,0.02903305558251808,0.0003062352133786362,0.02821018114887423,0.029586287546380288,1.9976286763126093e-05,2.1070611813598678e-07,1.941010537688534e-05,2.035693978551389e-05,1.9976286763126093e-05,2.1070611813598678e-07,1.941010537688534e-05,2.035693978551389e-05,-3.622881355932203,30.78784987350336,-90.7,79.78,1.5111235527899312,0.013068324002755465,1.488681706487444,1.530501415716056,2.036338371827901,0.4219438551759556,1.36399194265803,2.730743935288351,0.9085317015437028,0.5374629393123393,0.026822119391905375,2.068512190448054,1.363899455900619,0.3835095971493571,0.7196223025962967,1.968065366998272,0.5476712588932615,2.3015652981546806,-4.93621826171875,4.00848388671875,35.8215789473684,0.009874559494363151,35.81,35.83,0.18983050847457628,-0.0015438596491224997,0,1,0
0,0.02944120183018302,0.0029697299731065376,0.016513284587740193,0.03853099737139378,0.029441187892221492,0.002969728567186275,0.01651327677007272,0.03853097913016968,2.025710350433199e-05,2.0433312400807686e-06,1.1362012903542639e-05,2.651136344159949e-05,2.025710350433199e-05,2.0433312400807686e-06,1.1362012903542639e-05,2.651136344159949e-05,5.667491525423718,34.73691854954502,-63.59,126.47,1.4581457582344246,0.014000768966878966,1.4373443083267283,1.4816798470043357,0.8727949783739111,0.21065459814371837,0.6210068087190366,1.285247726025267,0.3987309383694224,0.2983040794351718,2.8686337900651893e-05,1.0001775337962737,2.3664874270444876,0.1693040438367585,2.025532464908571,2.554750302178995,-1.5592039500635084,3.6824298751418922,-8.80584716796875,3.57818603515625,35.82777777777778,0.010304020550550604,35.81,35.84,0.10847457627118644,-0.000743034055727817,0,1,0
0,0.03377547097084276,0.0053482941132027995,0.017201338112229368,0.04816374671424223,0.03377545498096505,0.005348291581230149,0.01720132996882575,0.0481637239127121,2.3239309838991986e-05,3.6799091303293057e-06,1.1835430107856916e-05,3.313920430199936e-05,2.3239309838991986e-05,3.6799091303293057e-06,1.1835430107856916e-05,3.313920430199936e-05,-15.274625850340135,107.58436932705179,-246.69,429.27,1.3346195740806146,0.07885453882104299,1.2219879130949518,1.4308800291735615,0.5359223653872889,0.08338204795605039,0.36797708316356953,0.6264726911861307,0.5866222110289355,0.9565270052797232,6.076866121418334e-08,2.9762144097312007,2.329201216654443,0.18552607683466318,1.964843818785494,2.551851970403125,0.950368876492711,3.7952562241106214,-6.04705810546875,6.50482177734375,35.816666666666656,0.009428090415818758,35.81,35.83,0.19047619047619047,-0.00016511867905053473,0,1,0
0,0.02323575348241145,0.014437850103946355,0.0,0.05229206786117727,0.023105570255422696,0.014645261012580985,-0.00619247878877727,0.05229204310523028,1.5897861523256445e-05,1.0076718686279386e-05,-4.260754838828489e-06,3.5979707527885024e-05,1.5897861523256445e-05,1.0076718686279386e-05,-4.260754838828489e-06,3.5979707527885024e-05,8.302135593220328,128.49679027785263,-298.23,322.25,1.275624018349202,0.06490837105913147,1.153905440391159,1.3728602349343502,1.397714838926137,0.5655973131502288,0.7080496517475584,2.33527485707688,1.7929576271707126,2.386477973746067,8.739918655464862e-08,7.762250984134674,1.2869247787091809,0.39305107539925377,0.6245727975063329,1.9056796136089298,-0.06464397345228172,2.156525826594264,-4.03900146484375,5.755615234375,35.80684210526315,0.007292845505554308,35.79,35.81,0.13559322033898305,-0.0008421052631580263,0,1,0
0,0.033457187707813744,0.01546389413576227,0.0,0.08738279761012517,0.03102324218595294,0.019901572529368586,-0.02408186195635605,0.0873827562416348,2.1345641021734862e-05,1.3693340639047488e-05,-1.656960215099968e-05,6.012398494791312e-05,2.1345641021734862e-05,1.3693340639047488e-05,-1.656960215099968e-05,6.012398494791312e-05,4.804406779661018,177.1645970571175,-358.13,554.77,1.2244422956759045,0.08836611011896417,1.109298662480257,1.3609185691957655,2.5794270361939313,0.4108010602190752,2.034594441877967,3.3409625230041295,1.9884917377677012,3.3719970129313612,5.229658484040556e-08,11.71259626503764,-0.05119287299108199,0.35255407121833504,-0.5991635447628376,0.5491665182168493,0.13804304056052202,2.3405209609180844,-3.26080322265625,5.133056640625,35.809999999999995,0.014907119849998282,35.79,35.83,0.13559322033898305,4.127966976240637e-05,0,1,0
0,0.026996802815598915,0.015721676437677502,0.0006880535244891746,0.06467703130198241,0.018358932985646722,0.025277403501859596,-0.03784292593141665,0.06467700068278481,1.2631922566466745e-05,1.739219833562554e-05,-2.6037946237285214e-05,4.4501217205542e-05,1.2631922566466745e-05,1.739219833562554e-05,-2.6037946237285214e-05,4.4501217205542e-05,6.742949152542373,142.9214724783169,-392.28,438.16,1.2558084955347866,0.10005824099843447,1.124444222027693,1.4857995814446943,3.627712785553083,0.3920632961338393,2.906615065882421,4.459366787881687,3.590544125742969,5.507091255420136,4.759964156164642e-08,17.418821220266082,-1.0036069749351468,0.17585417200338974,-1.2114286364851132,-0.6538031615903457,-0.3464507110065621,4.609465818790526,-8.16802978515625,6.74285888671875,35.8215789473684,0.009874559494363151,35.81,35.83,0.24406779661016947,-0.0015438596491224997,0,1,0
0,0.04117555683626714,0.007171015767678769,0.017201338112229368,0.07155756654687416,0.04117553734306398,0.007171012372798945,0.01720132996882575,0.07155753267031512,2.8330960179270008e-05,4.934038001401869e-06,1.1835430107856916e-05,4.923538924868476e-05,2.8330960179270008e-05,4.934038001401869e-06,1.1835430107856916e-05,4.923538924868476e-05,-2.299931972789119,132.70088297691356,-357.53,310.66,1.126121626054015,0.12732098372226455,1.014137872636249,1.4443272243807015,3.2657505052322224,0.4902393257675097,2.8123916370530395,4.439781600050426,1.700389852730969,2.459722058797133,3.09690335598134e-08,7.257271779713712,-1.0303864357564214,0.16434709465014824,-1.2131729418596433,-0.6996365243722895,-0.6235236269664528,3.840738322573322,-6.59332275390625,5.11932373046875,35.83444444444444,0.02060804110110019,35.81,35.87,0.08163265306122448,-0.0018163054695560581,0,1,0
0,0.01668178749169671,0.014387943801152714,0.0,0.04472347909179635,0.009314461670194087,0.01996334904379052,-0.01513717037256666,0.04472345791894695,6.408845146839524e-06,1.3735846167403306e-05,-1.0415178494914085e-05,3.0772118280427976e-05,6.408845146839524e-06,1.3735846167403306e-05,-1.0415178494914085e-05,3.0772118280427976e-05,-4.273593220338983,122.99949259356798,-323.53,348.48,1.2645838289697415,0.06107529403182235,1.101504172322958,1.3218590575064864,2.7610067330952366,0.2560272985557381,2.3010282280410426,3.1909308475728637,1.8933553044759408,1.753418256152894,1.3651710332851508e-05,6.535436585480426,-0.10975328325780155,0.33621592043326415,-0.6442712189184174,0.4465242370381662,-0.02885487669194074,1.4583263963019157,-2.18048095703125,3.44390869140625,35.80777777777777,0.017497795275581533,35.79,35.83,0.10847457627118644,-0.0024767801857583736,0,1,0
0,0.005964680215673045,0.001606453383960541,0.0006880535244891746,0.011696909916315968,-0.005676438889712507,0.002436412927249617,-0.00825663838503636,0.01169690437880151,-3.905691935592786e-06,1.676381708077332e-06,-5.681006451771319e-06,8.048092473342702e-06,-3.905691935592786e-06,1.676381708077332e-06,-5.681006451771319e-06,8.048092473342702e-06,0.4485084745762741,29.684922769130626,-65.58,62.88,1.2636393403675281,0.021455943847591606,1.2287145026656365,1.2977074582994432,1.6570825173192303,0.329136961271547,1.1728616618539849,2.241269540575706,0.8258160219731036,0.44353366736318156,3.300017306528957e-05,1.4893399944049435,0.9913800949324112,0.2644152625125354,0.5105293775678396,1.3729795950102972,1.0002642648095825,1.2806800621830094,-1.25274658203125,3.26995849609375,35.79,0.012977713690460727,35.77,35.81,0.13559322033898305,0.0016842105263156785,0,1,0
0,0.02995607181449468,0.011231358026273392,0.003440267622445873,0.04678763966526387,0.029956057632784992,0.011231352709159047,0.0034402659937651497,0.04678761751520604,2.061136127626782e-05,7.72776815786039e-06,2.3670860215713828e-06,3.219236989337081e-05,2.061136127626782e-05,7.72776815786039e-06,2.3670860215713828e-06,3.219236989337081e-05,3.380680272108842,103.62881088015627,-272.53,353.13,1.1500225329930214,0.042804444599248724,1.101072325619433,1.224334234222279,0.7224330190375335,0.19920796109034572,0.5391497246196729,1.1416461359069057,0.4316583135943319,0.8152128813429177,3.3099894380939077e-08,2.7888616692320216,1.5829954666718518,0.09450522642022498,1.402823527039748,1.713580129287442,0.19039835586737167,1.9403584206307418,-3.40423583984375,3.65447998046875,35.771111111111104,0.014098419489387917,35.75,35.79,0.16326530612244897,-0.0016718266253867818,0,1,0
0,0.01121480438555144,0.003749274342693659,0.0006880535244891746,0.018577445161207715,0.01113054766418167,0.003992451853643404,-0.00275221279501212,0.018577436366331808,7.658408924213257e-06,2.7470192687668093e-06,-1.8936688172571063e-06,1.2782264516485466e-05,7.658408924213257e-06,2.7470192687668093e-06,-1.8936688172571063e-06,1.2782264516485466e-05,-8.970203389830512,140.20202499550425,-345.19,359.57,1.1958954481761894,0.01232484344723607,1.1830788901152003,1.2284192842294708,0.6430892509212287,0.07040082877791957,0.5549458294856876,0.7740108636091907,0.34551989151860857,0.5654089260406532,8.055621592006901e-08,2.008545785084573,1.798747100374898,0.04405915888243436,1.7237349954426886,1.8714900214154673,0.03341504421186802,1.8517216816967708,-3.5003662109375,3.0426025390625,35.76157894736842,0.00987455949436666,35.75,35.77,0.10847457627118644,-0.00042105263157901315,0,1,0
0,0.01358905710866117,0.0008572729613396255,0.011008856391826794,0.015137177538761842,0.013589050675372338,0.0008572725554921461,0.01100885118004848,0.01513717037256666,9.34998978520698e-06,5.898491240095552e-07,7.574675269028425e-06,1.0415178494914085e-05,9.34998978520698e-06,5.898491240095552e-07,7.574675269028425e-06,1.0415178494914085e-05,5.029389830508479,46.01140542061537,-81.86,185.58,1.154192734231251,0.01534509429867864,1.1336198125180303,1.1909666436032378,0.36986592336687424,0.08389549118983276,0.24882462069198474,0.5443458456673851,0.1427754076278539,0.17705674932952245,2.2395669763142223e-06,0.6655971836488543,1.9458864916666658,0.03831275026131682,1.879835399684114,2.0038495561606915,-0.1594564761576947,1.8101201531888844,-2.7862548828125,3.26080322265625,35.75,0.0,35.75,35.75,0.16271186440677965,0.0,0,1,0
0,0.014201050294558851,0.00042426294705222187,0.013073016965294318,0.015137177538761842,0.014201043571542123,0.00042426274619898635,0.01307301077630757,0.01513717037256666,9.77107345503074e-06,2.9191533963395695e-07,8.994926881971256e-06,1.0415178494914085e-05,9.77107345503074e-06,2.9191533963395695e-07,8.994926881971256e-06,1.0415178494914085e-05,1.9059322033898316,14.614489178945165,-29.45,25.45,1.1025620119702546,0.018163409334610137,1.0698002250062049,1.1297946723507009,0.13039275305433443,0.05865686612708674,0.04495086858700842,0.2326249868423341,0.023654021589102844,0.0717802866760419,9.059071626182913e-08,0.3153213391581984,2.0284385221928125,0.008198011364167307,2.0089835117500705,2.037179172222869,-0.12212521385022487,1.5097842982681982,-2.386474609375,3.17230224609375,35.73947368421053,0.011909166841037525,35.71,35.75,0.13559322033898305,-0.000771929824561412,0,1,0
0,0.014374233834736391,0.0003942307363018213,0.013073016965294318,0.015825231063251018,0.014374227029731682,0.000394230549666341,0.01307301077630757,0.01582522357131969,9.890232887409166e-06,2.712515907440911e-07,8.994926881971256e-06,1.088859569922836e-05,9.890232887409166e-06,2.712515907440911e-07,8.994926881971256e-06,1.088859569922836e-05,-0.2555102040816329,18.604814027874628,-39.4,34.3,1.038959599232144,0.018006474233422252,1.0113297761100049,1.0669948261273643,0.018109602163186463,0.00957871432546276,0.006950363560222411,0.03975398496831603,0.010440345181227856,0.0396208150132643,1.2222394640826195e-07,0.17321266999101176,1.9491884831541517,0.04714382874813766,1.8634639150622863,2.0159640863792543,0.4505313655578765,1.5918752755807772,-2.44598388671875,3.05938720703125,35.71444444444445,0.008314794192829326,35.71,35.73,0.13605442176870747,0.0006604747162021389,0,1,0
0,0.01466297848810035,0.00035637021740114234,0.013761070489783492,0.015137177538761842,0.014662971546399037,0.00035637004868947005,0.013761063975060599,0.01513717037256666,1.0088904475724542e-05,2.452015519405629e-07,9.468344086285531e-06,1.0415178494914085e-05,1.0088904475724542e-05,2.452015519405629e-07,9.468344086285531e-06,1.0415178494914085e-05,-1.2626440677966113,19.03761291631066,-38.85,30.69,0.9782562747089245,0.017425086895023374,0.9505229365320782,1.0081733131064503,0.045194129221579254,0.019612254506460057,0.019962795903544196,0.08189992140831412,0.06724369217063092,0.06572676949699165,4.643686787597634e-06,0.270045695102902,1.7361319255839462,0.0723375145141429,1.6153168348212597,1.851192215481929,-0.3957238879368019,1.4929301279723348,-2.49176025390625,2.67181396484375,35.70166666666667,0.01343709624716476,35.68,35.71,0.13559322033898305,-0.0010216718266254257,0,1,0
0,0.032399363921864356,0.01143472627194241,0.013761070489783492,0.05435622843464479,0.032399348583459026,0.011434720858550101,0.013761063975060599,0.054356202701489366,2.229247543036341e-05,7.867696263573392e-06,9.468344086285531e-06,3.739995914082785e-05,2.229247543036341e-05,7.867696263573392e-06,9.468344086285531e-06,3.739995914082785e-05,0.8367457627118656,54.27372158323663,-92.43,209.89,0.9350716531279879,0.03079309957260437,0.8642527694868488,0.9716740575240957,0.17722140617258497,0.04355096831780951,0.09009541955796234,0.22986230876634792,0.1292928787305204,0.31565907174239094,6.298814625438354e-08,1.3008099949748293,1.472380848826111,0.07714454861845309,1.3477769247679512,1.6007601407799172,0.1351112763284158,1.8905819712696228,-2.9144287109375,3.04718017578125,35.675789473684205,0.008153649149911625,35.66,35.68,0.08135593220338982,-0.001052631578947533,0,1,0
0,0.03579737931463951,0.008033554368769192,0.0027522140979566985,0.05298012138566645,0.035797362367556276,0.008033550565549044,0.00275221279501212,0.05298009630398331,2.4630489683918438e-05,5.527510163970232e-06,1.8936688172571063e-06,3.64531247321993e-05,2.4630489683918438e-05,5.527510163970232e-06,1.8936688172571063e-06,3.64531247321993e-05,-0.6198644067796585,68.29290299863975,-240.61,193.38,0.8559496407361914,0.020670266562513036,0.8322161167473113,0.9062834127980736,0.17607430705616645,0.09920870595707358,0.08575370594819136,0.36929765110100243,0.26032099469938585,0.4184658660197248,4.7256021318276e-08,1.2891705903559192,1.2316234594231341,0.06039523801520575,1.1373042571727963,1.3346267403347911,-0.039676165602941744,1.7426223142423478,-2.81219482421875,3.01055908203125,35.696666666666665,0.014907119849999166,35.68,35.71,0.13559322033898305,0.0024767801857586078,0,1,0
0,0.03660725588455665,0.0012864513863511291,0.033026569175480386,0.04059515794486131,0.036607238554064336,0.0012864507773233445,0.03302655354014544,0.04059513872642877,2.5187727584639226e-05,8.851465723756485e-07,2.2724025807085277e-05,2.7931615054542318e-05,2.5187727584639226e-05,8.851465723756485e-07,2.2724025807085277e-05,2.7931615054542318e-05,-4.260102040816321,67.98616550688627,-289.26,145.36,0.8412972193232798,0.012098693219291166,0.8252102777000843,0.876819417928938,0.3135360763660079,0.02062717416338225,0.2702375722511546,0.3613875835385165,0.22207189750458342,0.24631103282867967,6.889222348149815e-08,1.055033120876078,1.055824389147968,0.039816914471187126,0.9971572531581825,1.1276021627963368,0.1342182011567345,1.5729880727188077,-2.81829833984375,2.74505615234375,35.712631578947374,0.011164843913470673,35.68,35.73,0.24489795918367346,-0.0006842105263157656,0,1,0
0,0.03591920236006749,0.001459998407620859,0.03096240860201286,0.037842943846904606,0.03591918535531122,0.0014599977164329854,0.03096239394388635,0.03784292593141665,2.4714310380324873e-05,1.0045560989638342e-06,2.1303774194142445e-05,2.6037946237285214e-05,2.4714310380324873e-05,1.0045560989638342e-06,2.1303774194142445e-05,2.6037946237285214e-05,4.468610169491524,20.978378952914827,-75.52,33.38,0.8118021407932637,0.006569975840088536,0.7995530966580405,0.8223752132833076,0.3113392462033023,0.007277140948108897,0.2911258716471118,0.31998508603693204,0.23957289450665098,0.16201884870145228,0.0002819158511808695,0.604633300400387,0.9642479753324817,0.014115100372660876,0.9469469325105961,0.9923197452595318,0.2975724256079352,1.5810159318509156,-2.61077880859375,2.935791015625,35.69666666666666,0.019720265943666868,35.66,35.71,0.16271186440677965,-0.000928792569659588,0,1,0
0,0.030139533778806175,0.004382147836964523,0.013761070489783492,0.03990710442037213,0.030139519510242536,0.004382145762381821,0.013761063975060599,0.03990708552767574,2.073759280790172e-05,3.0151494092088497e-06,9.468344086285531e-06,2.745819785022804e-05,2.073759280790172e-05,3.0151494092088497e-06,9.468344086285531e-06,2.745819785022804e-05,-8.408406779661016,58.92203290678647,-199.01,118.26,0.7865777176196663,0.01814291188345551,0.7606944707577971,0.8193362209718711,0.24634334813711375,0.049475831603012374,0.18111187762440206,0.31937530291576477,0.14592003707198206,0.28774331197722347,2.787284802963086e-08,1.105898008103126,0.9538537580904362,0.007740141244072319,0.9459457413238401,0.9697856446165467,0.17424032055118835,1.8501826970030861,-2.68402099609375,3.73077392578125,35.68421052631579,0.019280693772648044,35.66,35.71,0.13559322033898305,0.0021578947368421993,0,1,0
0,0.03214192892970852,0.0015269782094299662,0.028898248028545334,0.036466836797926255,0.03214191371317725,0.0015269774865327255,0.02889823434762726,0.03646681953391059,2.2115346544395492e-05,1.0506417440327037e-06,1.9883522581199616e-05,2.5091111828656657e-05,2.2115346544395492e-05,1.0506417440327037e-06,1.9883522581199616e-05,2.5091111828656657e-05,7.8735254237288155,32.09780248740623,-84.39,109.88,0.7666466440957407,0.0076424189928723405,0.7548154816336522,0.7828658617100934,0.14611735366953746,0.03525765481003513,0.09298752838486508,0.21422576262728532,0.051659697856516106,0.09637079793532062,7.330960007934095e-07,0.3732589896884395,0.9926614729146807,0.011748690297889358,0.9722706457726139,1.0097636354417685,-0.302610713948088,1.1861071847736484,-2.12860107421875,2.94952392578125,35.685555555555545,0.01892154040658632,35.66,35.71,0.10847457627118644,-0.0014035087719300146,0,1,0
0,0.03598941190338266,0.00032710916822537256,0.035090729748947905,0.036466836797926255,0.0359893948653881,0.00032710901336637427,0.03509071313640453,0.03646681953391059,2.476261825831609e-05,2.2506840298768098e-07,2.4144277420028106e-05,2.5091111828656657e-05,2.476261825831609e-05,2.2506840298768098e-07,2.4144277420028106e-05,2.5091111828656657e-05,1.1436054421768704,19.448303825646708,-38.65,50.31,0.737222481257862,0.009212780583460282,0.7226597581524935,0.7531646944211925,0.041130500052927205,0.022242340963719937,0.013006067241503888,0.0856643629891587,0.0016847634246127967,0.004862337648445027,1.5986541984647218e-07,0.018094109688264526,1.0080017917671005,0.006310445797158372,0.9931810806541046,1.0136218832340917,0.34259957060328783,1.3615768961655248,-2.1026611328125,2.4871826171875,35.71,0.0,35.71,35.71,0.13605442176870747,0.0,0,1,0
0,0.03591360457215445,0.00027310709835319036,0.03577878327343708,0.036466836797926255,0.035913587570048394,0.00027310696905968315,0.03577876633515756,0.03646681953391059,2.471045880626877e-05,1.879121236632594e-07,2.461769462434238e-05,2.5091111828656657e-05,2.471045880626877e-05,1.879121236632594e-07,2.461769462434238e-05,2.5091111828656657e-05,-0.18410169491525444,16.657272930500465,-33.04,26.31,0.7070578903002339,0.00861834583750262,0.6939961352625406,0.7215694361091903,0.0053018323233327775,0.0025425100384937386,0.002788737100495571,0.011489551867027364,0.0017321679561830565,0.005064904015603654,1.443205104451062e-07,0.018431776246145087,0.9530313817267143,0.023904281238619107,0.9124406813491033,0.9899434052576651,-0.06071805362370115,1.1179931946597008,-1.86004638671875,2.081298828125,35.71526315789474,0.008806947647725358,35.71,35.73,0.13559322033898305,-0.00045614035087710223,0,1,0
0,0.030587957704331658,0.006568385356237475,0.013761070489783492,0.037842943846904606,0.030587943223476553,0.0065683822466530515,0.013761063975060599,0.03784292593141665,2.1046132178189104e-05,4.519396415442247e-06,9.468344086285531e-06,2.6037946237285214e-05,2.1046132178189104e-05,4.519396415442247e-06,9.468344086285531e-06,2.6037946237285214e-05,1.567627118644071,31.906449416527593,-78.2,94.46,0.6925889826042324,0.01315094136616398,0.6813456148003615,0.718106376181546,0.03848645250225437,0.050065434928247034,0.00230596704942973,0.1327805343567483,0.08191267816035985,0.23700696679813385,5.592385088348806e-08,0.997036505626096,0.8738156489779659,0.019060588367108507,0.8461431724898352,0.9078325184999865,0.10073972791387101,1.544478946439461,-3.24249267578125,2.54974365234375,35.73444444444445,0.00831479419283228,35.73,35.75,0.16271186440677965,0.0,0,1,0
0,0.03279411866045024,0.003048403947681233,0.022705766308142764,0.03853099737139378,0.03279410313516129,0.0030484025045153843,0.022705755558849988,0.03853097913016968,2.25640875623845e-05,2.0974630943185555e-06,1.5622767742371126e-05,2.651136344159949e-05,2.25640875623845e-05,2.0974630943185555e-06,1.5622767742371126e-05,2.651136344159949e-05,-5.747762711864408,90.85690486196545,-197.37,194.12,0.6967439566846089,0.006360245980456068,0.689010083290185,0.7151640632067253,0.09853779885374955,0.01008246222005901,0.08569694983416426,0.12587070369644232,0.05625715456532113,0.12608568433511708,5.174644490679725e-08,0.41547240429699195,0.8293744152788086,0.007645426321234343,0.8183298632321572,0.8438581229485302,0.1367871873727803,1.7538916164406777,-3.057861328125,2.91290283203125,35.730000000000004,0.012977713690460727,35.71,35.75,0.18983050847457628,-0.0005614035087717433,0,1,0
0,0.030124574718451206,0.004972981596960229,0.01926549868569689,0.034402676224458736,0.030124560456969394,0.004972979242666856,0.01926548956508484,0.0344026599376515,2.0727300183446822e-05,3.4216742752493523e-06,1.3255681720799745e-05,2.367086021571383e-05,2.0727300183446822e-05,3.4216742752493523e-06,1.3255681720799745e-05,2.367086021571383e-05,3.8915986394557818,31.905114188636436,-110.72,96.61,0.6714472470101036,0.008778684411466415,0.6578763063679306,0.6866414868493875,0.04316103660149076,0.018922410279069216,0.019440945719661106,0.08209395104030057,0.016685043388130875,0.03753801890693703,1.4464510444955891e-07,0.10930694368886518,0.807043609925402,0.007063504388242391,0.7938626384676979,0.8173260677465058,-0.030404935699538616,1.5848106230949726,-2.85797119140625,2.69012451171875,35.73444444444445,0.00831479419283228,35.73,35.75,0.13605442176870747,-0.0001651186790505934,0,1,0
0,0.025598399492729927,0.000610890273661175,0.023393819832631935,0.026834087455077812,0.025598387374015763,0.000610889984455414,0.02339380875760302,0.02683407475136817,1.761305231561079e-05,4.2032480789073843e-07,1.6096184946685404e-05,1.8463270968256787e-05,1.761305231561079e-05,4.2032480789073843e-07,1.6096184946685404e-05,1.8463270968256787e-05,0.4976949152542359,15.278863769155569,-39.47,27.29,0.6523128926490753,0.0069926197652709484,0.6401141144277788,0.6630915921073256,0.021190107437456536,0.006091008542347194,0.010672973769133903,0.030093639140166842,0.0029687744231034346,0.008696692735191443,1.3046620281342847e-07,0.0335190227847697,0.7695164766472914,0.01458329979825251,0.7442437159093107,0.7917547819540127,0.05439334577039055,1.354036425252627,-2.47955322265625,2.447509765625,35.73666666666667,0.009428090415822106,35.73,35.75,0.13559322033898305,0.0001651186790505934,0,1,0
0,0.02683873646537844,0.00035317182176548416,0.026146033930588636,0.027522140979566984,0.02683872375946786,0.00035317165456798477,0.02614602155261514,0.027522127950121197,1.84664697331508e-05,2.430008866344024e-07,1.7989853763942512e-05,1.8936688172571062e-05,1.84664697331508e-05,2.430008866344024e-07,1.7989853763942512e-05,1.8936688172571062e-05,-1.4330169491525426,15.963683786975995,-33.03,25.18,0.6266103134699628,0.00688235602151158,0.6157682670894955,0.6389578065380174,0.004591951221732904,0.002021999271704215,0.0025164331107418625,0.009518667045777678,0.0013140944344498192,0.00508992494440789,1.0414990961327142e-07,0.022813600311117795,0.7095459595647213,0.019362431202037483,0.6775440007071063,0.7409310020920372,-0.1463272435493564,1.3032227160475995,-2.09808349609375,2.44293212890625,35.759473684210526,0.009986139979480653,35.75,35.77,0.13559322033898305,0.0010175438596492818,0,1,0
0,0.027264705987411163,0.00033295086498368775,0.026834087455077812,0.027522140979566984,0.027264693079839385,0.0003329507073591321,0.02683407475136817,0.027522127950121197,1.8759559286603153e-05,2.290877992255349e-07,1.8463270968256787e-05,1.8936688172571062e-05,1.8759559286603153e-05,2.290877992255349e-07,1.8463270968256787e-05,1.8936688172571062e-05,0.7985374149659878,17.778002331771255,-32.6,27.89,0.6047957007125153,0.005966722403016114,0.594666882768196,0.614049620287244,0.0022803272640223174,0.0005730651696160238,0.0011442516256387572,0.0029986827435969994,0.0009274686909490911,0.0027556683354387646,2.2083355669111349e-07,0.010936174011914088,0.644584740851649,0.017790846591468595,0.6156849313922157,0.6740014553157996,0.2600923069653381,1.3874975362560351,-2.19573974609375,2.48565673828125,35.77333333333333,0.01527525231651884,35.75,35.79,0.13605442176870747,0.001589267285861397,0,1,0
0,0.027419166982704645,0.0002704257577172362,0.026834087455077812,0.028210194504056162,0.02741915400200843,0.00027042562969312124,0.02683407475136817,0.02821018114887423,1.8865836618183893e-05,1.8606721953515435e-07,1.8463270968256787e-05,1.941010537688534e-05,1.8865836618183893e-05,1.8606721953515435e-07,1.8463270968256787e-05,1.941010537688534e-05,-0.9295932203389831,16.77978686670832,-38.91,29.06,0.5835372386663537,0.006159178029983796,0.5734571736180821,0.5933789751944027,0.00042262547100723716,0.00026599969642303263,0.00014063978423933303,0.0010159039855845986,8.648710794334224e-05,0.000364669019935894,2.7204737894446357e-07,0.0016336455650100595,0.5827198527804748,0.01794187358382187,0.5533577458133423,0.6123476276939587,0.20122622733672263,1.5303556683282313,-2.22930908203125,2.70538330078125,35.77736842105263,0.01617083315340691,35.75,35.79,0.16271186440677965,-0.0011929824561403878,0,1,0
0,0.02752678998986757,0.00031486535583868594,0.026834087455077812,0.028210194504056162,0.027526776958220787,0.0003148652067761159,0.02683407475136817,0.02821018114887423,1.89398869374651e-05,2.1664401269834042e-07,1.8463270968256787e-05,1.941010537688534e-05,1.89398869374651e-05,2.1664401269834042e-07,1.8463270968256787e-05,1.941010537688534e-05,1.2123728813559322,17.89649392223005,-35.97,30.83,0.5638883782277658,0.006145968435880889,0.554650441560776,0.5740807985256395,0.00013860492387623527,6.126758421115688e-05,4.937215900200091e-05,0.00022467107474856017,1.8505638876028557e-07,8.815485422734308e-08,1.0150311090771635e-07,4.720547655259408e-07,0.5226785529906959,0.016725773589993796,0.49532006930613814,0.5501194164480396,-0.3509483609627094,1.564395442202569,-2.73895263671875,2.642822265625,35.794444444444444,0.008314794192832282,35.79,35.81,0.16271186440677965,0.0004953560371517803,0,1,0
0,0.027728088973291605,0.00031510104224599563,0.027522140979566984,0.028210194504056162,0.027728075846346522,0.0003151008930718463,0.027522127950121197,0.02821018114887423,1.9078391281345387e-05,2.168061774080206e-07,1.8936688172571062e-05,1.941010537688534e-05,1.9078391281345387e-05,2.168061774080206e-07,1.8936688172571062e-05,1.941010537688534e-05,-1.398135593220338,17.25598447648818,-33.16,26.92,0.5449020463006713,0.004920903229081501,0.5360810822521598,0.5532393503258147,0.0019035926451701154,0.002322309335545367,1.4827831752074849e-05,0.0054661261158989154,0.0031424088045481227,0.009173355588227681,2.753678516233954e-07,0.03166246460117195,0.46346205431517973,0.017385093754617064,0.4349902963728499,0.4921155868721466,0.16083681849628761,1.7189679367756983,-2.4932861328125,2.75726318359375,35.798421052631575,0.009874559494366657,35.79,35.81,0.13559322033898305,-0.0015438596491230484,0,1,0
0,0.023136384840476115,0.013679905474626353,0.0,0.06605313835096077,0.023108290083290534,0.013727285335596503,-0.00068805319875303,0.06605310708029088,1.5899732909520974e-05,9.445102585352738e-06,-4.734172043142766e-07,4.5448051614170555e-05,1.5899732909520974e-05,9.445102585352738e-06,-4.734172043142766e-07,4.5448051614170555e-05,3.369727891156467,53.37324341700742,-276.09,90.13,0.5294205627068511,0.004889159506103758,0.5225237680903289,0.5406714433921742,0.012835719280141863,0.019491720386249894,0.003007755608583159,0.07661367050279222,0.07220572759746519,0.12130608380240636,7.669295389450825e-07,0.3703069097731193,0.40499161299457886,0.016624779304553264,0.37691624963254866,0.4318535338933311,0.24916220539556838,1.4546314072434365,-2.4200439453125,2.71759033203125,35.82222222222221,0.011811273125259448,35.79,35.83,0.16326530612244897,-0.0006398348813206975,0,1,0
0,0.03067881897367612,0.015059196418456235,0.0,0.053668174910155624,0.030567228255413345,0.015284396661242192,-0.00275221279501212,0.05366814950273634,2.1031879178151148e-05,1.0516478013777824e-05,-1.8936688172571063e-06,3.6926541936513574e-05,2.1031879178151148e-05,1.0516478013777824e-05,-1.8936688172571063e-06,3.6926541936513574e-05,-5.146135593220333,158.69377862480587,-367.11,363.29,0.5253627804112624,0.02023603943689405,0.49442670827529595,0.5524220577570753,0.07215320775254505,0.029997738931625845,0.02669291681661881,0.11382560974492707,3.0505323857695405e-07,4.7140949765737966e-07,3.297692674486541e-08,1.924267269082236e-06,0.3345984431772346,0.025867225632181162,0.28817766455441385,0.3732260805761406,0.3281974733301175,1.8260108321418194,-2.60162353515625,3.45001220703125,35.81277777777779,0.02280486194641724,35.79,35.84,0.08135593220338982,0.0030443756449950337,0,1,0
0,0.030943686057128796,0.0021934262399046214,0.019953552210186066,0.036466836797926255,0.03094367140786589,0.0021934252014996405,0.01995354276383787,0.03646681953391059,2.129089209334481e-05,1.5091932261173347e-06,1.372909892511402e-05,2.5091111828656657e-05,2.129089209334481e-05,1.5091932261173347e-06,1.372909892511402e-05,2.5091111828656657e-05,4.48620338983051,37.105767588039676,-70.99,121.46,0.4955040697874936,0.004483057166843388,0.4864942002203284,0.5016550611407871,0.11137206092207437,0.05890838600858407,0.020863193601013096,0.19528273424558712,0.15738111309001496,0.19689836078434444,8.548453949708268e-07,0.60126195347955,0.2037705453270183,0.05177887527043945,0.11226978049367137,0.2813931600120395,-0.2647792730970359,1.8014354247871005,-3.192138671875,2.62908935546875,35.83052631578947,0.002232968782695502,35.83,35.84,0.08135593220338982,-0.00015789473684218604,0,1,0
0,0.03530923323307624,0.008536285552026485,0.002064160573467524,0.06674119187544994,0.03530921651708962,0.008536281510804915,0.00206415959625909,0.0667411602790439,2.4294619370046816e-05,5.8734157989656695e-06,1.4202516129428298e-06,4.592146881848483e-05,2.4294619370046816e-05,5.8734157989656695e-06,1.4202516129428298e-06,4.592146881848483e-05,3.6528474576271246,94.03348712222983,-400.17,361.86,0.487207534632753,0.00292807733897121,0.48351518142769195,0.49347753473853584,0.2870442297676267,0.057493310466016315,0.19802523700968733,0.3723272159281741,0.3527586090734458,0.35312504984194604,9.259569970332393e-06,1.3031167265758326,0.002401971054928364,0.059131585759004145,-0.09143128024121738,0.10072664317427524,0.5854593313076908,2.2593969849077706,-3.00445556640625,5.21697998046875,35.827777777777776,0.010304020550550606,35.81,35.84,0.16271186440677965,0.0014035087719299559,0,1,0
0,0.028257000866266316,0.017233166921622533,0.0013761070489783493,0.07499783416932004,0.02490565354125764,0.02179787890112443,-0.03096239394388635,0.07499779866408027,1.7136414586097044e-05,1.4998100303949851e-05,-2.1303774194142445e-05,5.1602475270256146e-05,1.7136414586097044e-05,1.4998100303949851e-05,-2.1303774194142445e-05,5.1602475270256146e-05,-7.9397959183673565,206.0997641720996,-670.2,303.72,0.5215793850414022,0.02665359722535239,0.4858780382943782,0.5689634790783592,0.5578176921661536,0.08910661870996846,0.3924706620515458,0.669836460332464,0.40251373092963594,1.087087310055247,4.158022015587903e-08,3.622407094074683,-0.1643518126669228,0.03175907690855314,-0.20192286833842943,-0.10119105929257782,-0.5476694033127423,3.732772351046191,-6.646728515625,5.1513671875,35.848947368421065,0.016509881201428035,35.83,35.87,0.10884353741496598,0.001052631578947533,0,1,0
0,0.02811658177963587,0.007570349954167343,0.0,0.04747569318975305,0.027751479016372194,0.008815156211226739,-0.00894469158378939,0.04747567071395907,1.9094493907342495e-05,6.065296428642189e-06,-6.154423656085595e-06,3.2665787097685084e-05,1.9094493907342495e-05,6.065296428642189e-06,-6.154423656085595e-06,3.2665787097685084e-05,1.8238305084745812,98.90673626819107,-281.48,291.75,0.49931066383821565,0.019576382813649606,0.4743745567389848,0.5525953772933153,0.5136710264291536,0.04182376376261007,0.4627883910559305,0.6003968194532971,0.4667559563387473,0.7014226873490889,3.284131899761178e-08,2.5383283863464676,-0.18498644948607446,0.01656528428789388,-0.20270020155973384,-0.15115932056910553,0.01816046818642375,1.6798099354105758,-2.69622802734375,4.15802001953125,35.8438888888889,0.016712898840545214,35.83,35.87,0.08135593220338982,-0.0023426212590296966,0,1,0
0,0.03463047772918817,0.0036005406749507183,0.018577445161207715,0.04816374671424223,0.03463046133453594,0.0036005389703940294,0.018577436366331808,0.0481637239127121,2.382759969552058e-05,2.4773623558145523e-06,1.2782264516485466e-05,3.313920430199936e-05,2.382759969552058e-05,2.4773623558145523e-06,1.2782264516485466e-05,3.313920430199936e-05,-2.3926440677966103,98.3054717882854,-213.07,281.88,0.5035876177048519,0.01358764635915712,0.4849416578124228,0.5363365022837704,0.4237392538917452,0.06470552612433574,0.342281694679314,0.5418627104994924,0.2139773980041373,0.3182368524807734,5.751544662757624e-08,1.129544381841118,-0.08375685781258281,0.039131362419154984,-0.1453351999072422,-0.01798185612530323,-0.2082237830528846,1.2223947192927822,-2.45513916015625,1.79290771484375,35.85052631578948,0.017005783601475803,35.83,35.87,0.16271186440677965,-0.0001754385964911682,0,1,0
0,0.03607366335536101,0.0016467194009372142,0.032338515650991204,0.041283211469350475,0.036073646277480276,0.001646718621352472,0.03233850034139241,0.041283191925181796,2.4820587711905654e-05,1.1330300148677472e-06,2.2250608602771e-05,2.8405032258856593e-05,2.4820587711905654e-05,1.1330300148677472e-06,2.2250608602771e-05,2.8405032258856593e-05,4.871254237288132,30.893295495341416,-59.82,58.02,0.49840875874256696,0.0010298639009494713,0.4969145269745773,0.5002732879454923,0.2724239025193069,0.03788037968734182,0.21121825032218683,0.3298203905530007,0.15753899744672462,0.09131577419344446,0.01993648116441893,0.3383933977074518,0.0510417507361686,0.03703318307138359,-0.010537367209946802,0.1106004139509833,0.4104604789125524,1.1828834826170656,-1.75933837890625,2.46429443359375,35.857777777777784,0.0209644025156796,35.84,35.89,0.13559322033898305,-0.00033023735810101086,0,1,0
0,0.03692553914758573,0.004688866904125286,0.021329659259164413,0.04472347909179635,0.03692552166641264,0.004688864684336605,0.02132964916134393,0.04472345791894695,2.5406723298199506e-05,3.2261883445779172e-06,1.4675933333742575e-05,3.0772118280427976e-05,2.5406723298199506e-05,3.2261883445779172e-06,1.4675933333742575e-05,3.0772118280427976e-05,4.321564625850339,63.973561893656274,-216.45,148.59,0.5060431354942767,0.010799968461176647,0.49788417896394577,0.5310914166234959,0.1782202470183334,0.0197863196712835,0.13093733349105616,0.20513589160405354,0.0920142310506548,0.24645905005061863,3.650495505880258e-08,1.0638906799012262,0.1692017380796904,0.030459721420144345,0.1172426634877351,0.2167816138258016,0.0203319577957797,1.8153739396493243,-2.67791748046875,3.56292724609375,35.853333333333346,0.014907119849995633,35.84,35.87,0.16326530612244897,-0.0004953560371516042,0,1,0
0,0.03046031548954774,0.00638304881729288,0.004816374671424223,0.041283211469350475,0.030460301069120645,0.006383045795449895,0.00481637239127121,0.041283191925181796,2.0958307585588803e-05,4.39187507734638e-06,3.313920430199936e-06,2.8405032258856593e-05,2.0958307585588803e-05,4.39187507734638e-06,3.313920430199936e-06,2.8405032258856593e-05,-12.427220338983053,63.375628211928074,-162.1,182.92,0.5078663427178016,0.007162252669660544,0.4999315511970488,0.5249936287828713,0.09515613403762742,0.021981194795361304,0.05770381215865909,0.1254056888211807,0.06095655198146397,0.14918765518922475,5.876705477803057e-08,0.6383201574557449,0.25812553227554685,0.0202184637766531,0.2216850638208212,0.2877944221101742,-0.09163887270035283,1.4991348966786426,-2.716064453125,2.581787109375,35.836315789473694,0.004823763889429668,35.83,35.84,0.08135593220338982,-0.0004561403508774263,0,1,0
0,0.02877187085057787,0.0006421519025657998,0.026834087455077812,0.03096240860201286,0.028771857229488943,0.0006421515985602583,0.02683407475136817,0.03096239394388635,1.979656840081536e-05,4.4183446147375703e-07,1.8463270968256787e-05,2.1303774194142445e-05,1.979656840081536e-05,4.4183446147375703e-07,1.8463270968256787e-05,2.1303774194142445e-05,5.777864406779655,31.04556933669025,-60.19,91.06,0.5085698423422854,0.004688504853874493,0.5002702938215229,0.5147402818674429,0.051881141629044926,0.01678597215157484,0.02252038113888897,0.07345984366847648,0.015589993481821524,0.04956016137767338,1.3725031067224336e-07,0.20828787408748295,0.3025335243961043,0.005768329955190557,0.2901751271290788,0.3082482689341939,-0.009960111830495656,1.3884027412506357,-2.191162109375,2.55889892578125,35.835555555555565,0.007617394000446853,35.81,35.84,0.05423728813559322,-0.0008462332301343426,0,1,0
0,0.028954036152152474,0.0005027813829903277,0.027522140979566984,0.030274355077523685,0.028954022444823497,0.0005027811449651409,0.027522127950121197,0.03027434074513332,1.992190775992785e-05,3.4594017506597565e-07,1.8936688172571062e-05,2.083035698982817e-05,1.992190775992785e-05,3.4594017506597565e-07,1.8936688172571062e-05,2.083035698982817e-05,1.4858305084745758,23.196160755646197,-57.36,46.8,0.4926836398601204,0.003755562219394464,0.4856941953694086,0.49924136188326207,0.010408313767802983,0.003620140425886316,0.007154363703892092,0.01994423389831977,0.0036726800793875462,0.007453492639352769,3.709445061117478e-07,0.026077823569327863,0.29624281973604605,0.008943561176757977,0.2794679955512292,0.30772888581335417,0.16505759643857593,1.5391251083294368,-2.47650146484375,2.54058837890625,35.814210526315776,0.00815364914990873,35.81,35.83,0.16271186440677965,-0.0006315789473682954,0,1,0
0,0.03524051010802044,0.004593233076945682,0.02476992688161029,0.04472347909179635,0.035240493424568406,0.004593230902431666,0.02476991515510908,0.04472345791894695,2.4247334226409464e-05,3.160387215029376e-06,1.7043019355313955e-05,3.0772118280427976e-05,2.4247334226409464e-05,3.160387215029376e-06,1.7043019355313955e-05,3.0772118280427976e-05,-2.9017687074829945,54.620679118332674,-182.86,122.19,0.48086388317380013,0.008684926897304384,0.47015197304056133,0.5108933525052927,0.013068721259746053,0.028067752054808933,0.0013878393348456918,0.11922262182071419,0.12746398119799127,0.37748905670505967,4.984947270247897e-08,1.4828810907499947,0.25978626034378494,0.009838899854985024,0.24578028756309567,0.27721628109865154,0.1904698222801644,1.771923767539331,-2.9449462890625,3.19366455078125,35.809999999999995,0.013333333333333051,35.79,35.83,0.13605442176870747,-0.0013209494324045712,0,1,0
0,0.038325049377669194,0.00034440069151620137,0.03715489032241543,0.039219050895882956,0.03832503123394422,0.0003444005284711033,0.037154872732663616,0.03921903232892271,2.636966033282517e-05,2.3696588526677608e-07,2.5564529032970932e-05,2.6984780645913764e-05,2.636966033282517e-05,2.3696588526677608e-07,2.5564529032970932e-05,2.6984780645913764e-05,2.945288135593219,19.54499899194021,-50.39,37.41,0.5309932410041094,0.00712421630551399,0.523651990978291,0.5517079848832236,0.17381245658156513,0.020795622273078733,0.14119910007751096,0.21034620246573393,0.06904210806547471,0.10566490572700363,6.043265798894026e-08,0.2832827585676845,0.24766641343575088,0.0050029066750331185,0.24309615760492032,0.25906814892153907,-0.180193847504751,1.3415343520768774,-2.45513916015625,2.24151611328125,35.79666666666666,0.016329931618554495,35.77,35.81,0.13559322033898305,0.0004953560371514869,0,1,0
0,0.03814977852674437,0.0005322659994101837,0.03715489032241543,0.039219050895882956,0.0381497604659957,0.0005322657474264815,0.037154872732663616,0.03921903232892271,2.624906472029024e-05,3.6622715010346307e-07,2.5564529032970932e-05,2.6984780645913764e-05,2.624906472029024e-05,3.6622715010346307e-07,2.5564529032970932e-05,2.6984780645913764e-05,-1.388203389830509,13.740943488663092,-36.22,27.59,0.518850507225833,0.0016420269889300672,0.5168303110988328,0.5223559543921427,0.09915070411024207,0.01987350067137021,0.06882636722062571,0.1348489162960539,0.047655585397325166,0.04250750966530112,5.539709746482657e-07,0.1494423487370753,0.2864690823421688,0.015834929091450456,0.2614014526878731,0.31263141090770014,0.39889901210889034,1.3306973470104424,-2.23846435546875,2.47344970703125,35.79421052631579,0.008153649149911627,35.79,35.81,0.13559322033898305,0.0006315789473685197,0,1,0
0,0.036630659065661736,0.000898487106759308,0.034402676224458736,0.03853099737139378,0.036630641724089856,0.0008984866814003555,0.0344026599376515,0.03853097913016968,2.5203830210636226e-05,6.182066351745088e-07,2.367086021571383e-05,2.651136344159949e-05,2.5203830210636226e-05,6.182066351745088e-07,2.367086021571383e-05,2.651136344159949e-05,0.48979591836734643,14.01860486179977,-29.43,29.38,0.5109871695837659,0.0029844851847438216,0.5071268798370966,0.5179903104042501,0.02921748048414858,0.016849334356693817,0.008733713870193586,0.0634146893150303,1.7818649208449036e-07,7.58543129071941e-08,1.0174679684893384e-07,3.5003126463983847e-07,0.3326350705296155,0.008834976156684294,0.3153725436801808,0.34351662271143313,0.02751693536270937,1.468376312880472,-2.142333984375,2.48870849609375,35.78111111111111,0.00993807989999709,35.77,35.79,0.16326530612244897,-0.0006604747162021389,0,1,0
0,0.035802186454542174,0.002994766011527764,0.027522140979566984,0.043347372042818,0.03580216950518316,0.0029947645937550226,0.027522127950121197,0.04334735152144089,2.463379725033948e-05,2.0605573582454586e-06,1.8936688172571062e-05,2.9825283871799426e-05,2.463379725033948e-05,2.0605573582454586e-06,1.8936688172571062e-05,2.9825283871799426e-05,-4.290542372881359,46.58046404762703,-120.43,139.13,0.5047006528745778,0.002660768085365657,0.4995145139063768,0.5085050655012227,0.003930691248419463,0.0015216130290414617,0.0018750316125775975,0.007710279874192737,0.0009688531322605177,0.0040424751128782825,9.451366625445878e-08,0.01811755421309514,0.34046109975370237,0.003854221197582236,0.33223305572962564,0.34424291722218114,-0.06589581889490928,1.4684552911085131,-2.777099609375,2.26287841796875,35.785789473684204,0.00815364914990873,35.77,35.79,0.16271186440677965,-0.0004912280701753408,0,1,0
0,0.03748032104345754,0.00035271254051638776,0.03715489032241543,0.03853099737139378,0.03748030329964149,0.0003527123735363244,0.037154872732663616,0.03853097913016968,2.578844257555206e-05,2.426848768514418e-07,2.5564529032970932e-05,2.651136344159949e-05,2.578844257555206e-05,2.426848768514418e-07,2.5564529032970932e-05,2.651136344159949e-05,5.022610169491527,22.215237150694378,-55.65,38.97,0.49712481655633006,0.00343573822480547,0.49122465348815164,0.5015115095627114,0.003153226978248405,0.0011086301506303175,0.0013983996994222962,0.004741835513306214,0.002243889012798616,0.00924599144944964,3.0870932581777977e-07,0.0403660878381685,0.3165906997660374,0.009084070574811594,0.30129007572813016,0.3308136444362949,-0.2118490883699678,1.2598578563166971,-2.325439453125,2.40020751953125,35.79,0.0,35.79,35.79,0.13559322033898305,0.0,0,1,0
0,0.037299990045266844,0.00029193064696297346,0.036466836797926255,0.037842943846904606,0.0372999723868225,0.0002919305087580834,0.03646681953391059,0.03784292593141665,2.5664365314152918e-05,2.0086372036459938e-07,2.5091111828656657e-05,2.6037946237285214e-05,2.5664365314152918e-05,2.0086372036459938e-07,2.5091111828656657e-05,2.6037946237285214e-05,-0.39488135593220386,15.232462989114312,-36.79,23.31,0.48547686142892243,0.0033595267833086673,0.4802932051355273,0.49065903579724296,0.001769620420412259,0.00048093534733679105,0.0011781925201643942,0.002544156278877252,0.0013063329303589144,0.003291092275326055,1.5680907450993375e-07,0.012828911777796707,0.282219071069928,0.010521924289667098,0.26486644247002933,0.2994128152507134,0.34219727622664003,1.3594965809518875,-2.044677734375,2.39715576171875,35.78157894736841,0.009874559494363151,35.77,35.79,0.16271186440677965,0.0004210526315788636,0,1,0
0,0.03736083831614005,0.00031510104224599395,0.03715489032241543,0.037842943846904606,0.037360820628889076,0.00031510089307184777,0.037154872732663616,0.03784292593141665,2.5706232141745328e-05,2.1680617740802238e-07,2.5564529032970932e-05,2.6037946237285214e-05,2.5706232141745328e-05,2.1680617740802238e-07,2.5564529032970932e-05,2.6037946237285214e-05,-0.8961904761904766,14.90957866029971,-30.78,23.44,0.4727942941566485,0.003579351831844369,0.4667734457638242,0.4789713188960447,0.0004596495143679556,0.00028170082040233723,0.00013148762304647304,0.0010672917675410409,2.069838261503604e-07,1.0007800792373705e-07,1.2765333970779502e-07,5.288067473569261e-07,0.24659717668846529,0.009920305483594724,0.23045039907148504,0.26292998975804094,0.12280864100302419,1.1982821469853464,-2.00958251953125,2.00958251953125,35.78111111111111,0.00993807989999709,35.77,35.79,0.13605442176870747,0.0,0,1,0
0,0.037396638858046734,0.00033806968711609387,0.03715489032241543,0.03853099737139378,0.03739662115384719,0.0003380695270682041,0.037154872732663616,0.03853097913016968,2.5730864807459777e-05,2.3260981950020244e-07,2.5564529032970932e-05,2.651136344159949e-05,2.5730864807459777e-05,2.3260981950020244e-07,2.5564529032970932e-05,2.651136344159949e-05,0.2855254237288138,15.325508623025812,-31.39,23.79,0.4618949874726142,0.003219633696349015,0.45643157305155735,0.4665660424974747,4.934978338978783e-05,3.049680458727091e-05,1.4211275557836033e-05,0.0001160863080951876,3.4870066496732054e-07,9.28382352471753e-08,2.534852582083708e-07,6.152413494055556e-07,0.21291086493142986,0.00954183683857235,0.19728690234905044,0.22858550152974402,-0.19860144842125932,1.1947715488174415,-2.12249755859375,2.0355224609375,35.78555555555555,0.015713484026367054,35.77,35.81,0.13559322033898305,-0.0003302373581009522,0,1,0
0,0.037388922133466125,0.00034516320320573105,0.036466836797926255,0.03853099737139378,0.037388904432919826,0.00034516303979965115,0.03646681953391059,0.03853097913016968,2.5725555292941822e-05,2.374905336254699e-07,2.5091111828656657e-05,2.651136344159949e-05,2.5725555292941822e-05,2.374905336254699e-07,2.5091111828656657e-05,2.651136344159949e-05,-0.6252542372881358,15.230269810304916,-29.79,23.3,0.45052388627132933,0.003463645240862845,0.4454844330122643,0.45629184525577726,5.3290987558307345e-06,3.259802851610646e-06,1.6294519573051274e-06,1.2585990833309693e-05,2.676744320468177e-07,4.3878759590964165e-08,2.08216789791558e-07,3.614707865020326e-07,0.17850837195774005,0.010415203930296279,0.1611766548988633,0.19544212537245997,0.043294920814836,1.3278275956562051,-2.020263671875,2.28118896484375,35.79,0.0,35.79,35.79,0.16271186440677965,0.0,0,1,0
0,0.03729436063143346,0.0002766063458850576,0.03715489032241543,0.037842943846904606,0.03729434297565418,0.00027660621493494944,0.037154872732663616,0.03784292593141665,2.5660491979791458e-05,1.9031979098096061e-07,2.5564529032970932e-05,2.6037946237285214e-05,2.5660491979791458e-05,1.9031979098096061e-07,2.5564529032970932e-05,2.6037946237285214e-05,0.4703728813559316,15.568395327756123,-31.21,23.7,0.43843242601250004,0.0033926079223494513,0.43254142882271807,0.4452106923787205,1.6844826869512932e-06,5.891959749678462e-07,9.427548132292138e-07,2.492092811035939e-06,1.5086978952022883e-06,2.5702126575081444e-06,2.015441402133906e-07,1.132433812659974e-05,0.14180251480855388,0.01067596329659785,0.12427743823696452,0.1591836169568026,0.30894195149487086,1.1837741870639864,-1.81427001953125,2.05230712890625,35.801111111111105,0.009938079900000616,35.79,35.81,0.13559322033898305,0.0016511867905059342,0,1,0
0,0.03765571839806393,0.00196514269513915,0.03371462269996956,0.043347372042818,0.03765570057121182,0.001965141764807452,0.03371460673889847,0.04334735152144089,2.590912522930857e-05,1.3521220772789422e-06,2.3197443011399553e-05,2.9825283871799426e-05,2.590912522930857e-05,1.3521220772789422e-06,2.3197443011399553e-05,2.9825283871799426e-05,-1.165850340136054,22.09200278068866,-39.38,77.19,0.4260737361489885,0.0037642943466422146,0.42116755063980005,0.4323587437193564,0.0004098751001805265,0.0007992725196644769,6.819167838313646e-07,0.002739229430234467,0.004078052824157742,0.012707053780587821,8.373381181894923e-08,0.054344362814716884,0.10450199612411525,0.010547544332519518,0.08766367867186087,0.12222723397975396,0.03946041136749031,1.7050696670817882,-2.75421142578125,3.02886962890625,35.809999999999995,0.012977713690460729,35.79,35.83,0.05442176870748299,-0.0016842105263157783,0,1,0
0,0.036785120060955204,0.0003430622179556229,0.036466836797926255,0.03715489032241543,0.03678510264625898,0.00034306205554418133,0.03646681953391059,0.037154872732663616,2.531010754221705e-05,2.3604494468796363e-07,2.5091111828656657e-05,2.5564529032970932e-05,2.531010754221705e-05,2.3604494468796363e-07,2.5091111828656657e-05,2.5564529032970932e-05,1.6881694915254228,15.86312321093078,-35.37,26.78,0.4175315730475295,0.003041310594344046,0.41317357907804686,0.4222887400034042,0.0047183654247915435,0.0016291273678207395,0.0020076058085383725,0.006851725507922454,0.0003076142893467395,0.0012636006586415841,1.5170331046920893e-07,0.005517569818738077,0.07284108126767269,0.00764709314831616,0.060812221856631876,0.08594389574140132,-0.3565613986023309,1.2749086827087572,-2.58026123046875,1.90887451171875,35.81444444444443,0.008314794192829326,35.81,35.83,0.13559322033898305,0.0,0,1,0
0,0.036773671477765967,0.0003512388047928633,0.036466836797926255,0.037842943846904606,0.036773654068489696,0.00035123863851048795,0.03646681953391059,0.03784292593141665,2.5302230311661712e-05,2.416708687528002e-07,2.5091111828656657e-05,2.6037946237285214e-05,2.5302230311661712e-05,2.416708687528002e-07,2.5091111828656657e-05,2.6037946237285214e-05,-0.6779322033898296,16.930105712990418,-35.91,25.37,0.4075303472039076,0.002783499654444131,0.4031072571758158,0.41257835592943165,0.0007268145070844943,0.00047352997617070865,0.0001894509601222994,0.0017774439828381141,3.754506903296386e-07,5.879551035449475e-07,1.0294676613259446e-07,2.748029099466226e-06,0.047999455016858004,0.00701227173008519,0.03634483144074005,0.05950700974714898,0.5039494327516769,1.555256525373134,-2.29949951171875,2.728271484375,35.82578947368421,0.009902572485381619,35.81,35.84,0.16271186440677965,0.00040350877192995617,0,1,0
0,0.036377904709726946,0.001418225051124302,0.03371462269996956,0.03990710442037213,0.03637788748781319,0.0014182243797126407,0.03371460673889847,0.03990708552767574,2.5029921849867733e-05,9.758138210108131e-07,2.3197443011399553e-05,2.745819785022804e-05,2.5029921849867733e-05,9.758138210108131e-07,2.3197443011399553e-05,2.745819785022804e-05,0.7106440677966095,14.347015017910863,-26.86,37.81,0.402753762034271,0.0032793319266437746,0.39553452896478575,0.40568074538774873,0.0108368743990099,0.0048166254293734445,0.00017217346643529565,0.01673701378568611,0.010796993418592027,0.028765272754163983,1.0020943555510975e-07,0.11808383076411726,0.0222817511944133,0.00806814821572819,0.00859781078305577,0.03498482897692945,0.13992115462229485,1.617762631711858,-2.65045166015625,2.76641845703125,35.84000000000002,1.4210854715202004e-14,35.84,35.84,0.16271186440677965,0.0,0,1,0
0,0.034510330857542036,0.000262533209696818,0.03371462269996956,0.035090729748947905,0.03451031451976931,0.00026253308540916944,0.03371460673889847,0.03509071313640453,2.3744932295300396e-05,1.8063672919428138e-07,2.3197443011399553e-05,2.4144277420028106e-05,2.3744932295300396e-05,1.8063672919428138e-07,2.3197443011399553e-05,2.4144277420028106e-05,-1.7148639455782315,16.82942927158671,-35.83,46.67,0.39053571181405816,0.0032585795990661176,0.38490260617949806,0.39550396767918455,0.004631015847461585,0.0010928435741220431,0.002526136976963541,0.006813089477367211,0.0018724777218917582,0.005358544732507255,4.0162400986865077e-07,0.01934513501044567,-0.008192922077202505,0.009257854054541317,-0.023382968172301233,0.006874694171342677,-0.41773585468604607,1.357179826578535,-2.8411865234375,2.215576171875,35.842222222222226,0.015475986974648437,35.83,35.87,0.13605442176870747,0.0004127966976264542,0,1,0
0,0.034597934657084,0.00033972783927590806,0.03371462269996956,0.03577878327343708,0.034597918277838154,0.00033972767844302063,0.03371460673889847,0.03577876633515756,2.380520834126247e-05,2.3375071585766084e-07,2.3197443011399553e-05,2.461769462434238e-05,2.380520834126247e-05,2.3375071585766084e-07,2.3197443011399553e-05,2.461769462434238e-05,1.2226101694915243,16.11112262289832,-30.91,25.15,0.3790025906346874,0.003214623512874678,0.37368603636275455,0.38472964521667047,0.0009287768311677329,0.0005995560694717416,0.0002437022116740518,0.0022476045801715417,2.4483001744196015e-07,1.4374082735524456e-07,9.47271279029896e-08,6.080338619263159e-07,-0.040337398276791114,0.008997729528823878,-0.05466318098631695,-0.02515469663485176,0.3960720658598112,1.288894996249348,-1.86614990234375,2.447509765625,35.8463157894737,0.012230473724863092,35.84,35.87,0.13559322033898305,-0.0003157894736841477,0,1,0
0,0.038006766114640135,0.003606471972325245,0.03096240860201286,0.05229206786117727,0.03800674812159595,0.003606470264960581,0.03096239394388635,0.05229204310523028,2.6150664619264793e-05,2.4814434020138157e-06,2.1303774194142445e-05,3.5979707527885024e-05,2.6150664619264793e-05,2.4814434020138157e-06,2.1303774194142445e-05,3.5979707527885024e-05,5.959254237288134,34.477605929505586,-87.45,91.48,0.3714262175535804,0.0031262439335859216,0.3680424807666366,0.3791096487728199,0.006643045744086174,0.011047717471352596,6.99631358500278e-05,0.033058063158172474,0.020595111969077342,0.05972419762931946,9.672649685116969e-08,0.2549497957738204,-0.06766960139699786,0.006806945286412835,-0.07843635376162977,-0.056132241436134434,0.13567823598816126,1.8186518465241017,-3.240966796875,3.20587158203125,35.867222222222225,0.022804861946413943,35.84,35.89,0.13559322033898305,0.001393188854488887,0,1,0
0,0.03727576459023106,0.012326121177249467,0.0,0.07018145949789581,0.037071190586869356,0.012928312266895281,-0.00619247878877727,0.07018142627280906,2.550695126487869e-05,8.895366609715335e-06,-4.260754838828489e-06,4.828855484005621e-05,2.550695126487869e-05,8.895366609715335e-06,-4.260754838828489e-06,4.828855484005621e-05,-5.798101694915253,36.09461392455305,-152.01,51.81,0.3713898714714877,0.002741643789422727,0.3669399775208959,0.37623260983011414,0.027492583230123293,0.003663319891839404,0.021785960076984977,0.033313056594030374,0.04489304760184194,0.10213208322150401,5.478250141299768e-07,0.43326792795457103,-0.08916580371944187,0.005599544788769048,-0.09800731395959494,-0.07959943766588473,-0.2908470021288093,1.3908974146914432,-2.532958984375,3.00750732421875,35.88473684210526,0.008806947647728488,35.87,35.89,0.08135593220338982,0.0006666666666667708,0,1,0
0,0.033017207903038394,0.01535244256714441,0.0006880535244891746,0.056420389008112325,0.03297038593208398,0.01545269900812691,-0.00137610639750606,0.05642036229774846,2.2685379504692273e-05,1.0632278981909476e-05,-9.468344086285532e-07,3.882021075377068e-05,2.2685379504692273e-05,1.0632278981909476e-05,-9.468344086285532e-07,3.882021075377068e-05,2.864047619047631,168.7654929817464,-596.97,368.75,0.37175382030575005,0.009164898851048547,0.36147136646285805,0.38649950861979865,0.04604614962433533,0.01621249629092554,0.02373019362982928,0.06935660142577868,0.014796411027170006,0.03835592311543762,3.4712853924645515e-08,0.15201111597557804,-0.10611155841099973,0.0043168363188760515,-0.11308893294839345,-0.09890444691812644,0.12303723886646054,1.4384363134065437,-2.606201171875,2.41851806640625,35.89444444444443,0.008314794192829326,35.89,35.91,0.08163265306122448,-0.00016511867905053473,0,1,0
0,0.017734930641425038,0.01713329610348184,0.0,0.04816374671424223,0.017060910948672077,0.017804559586773693,-0.00481637239127121,0.0481637239127121,1.1738814351874403e-05,1.225048417606857e-05,-3.313920430199936e-06,3.313920430199936e-05,1.1738814351874403e-05,1.225048417606857e-05,-3.313920430199936e-06,3.313920430199936e-05,-4.828067796610175,66.10015563454186,-157.25,216.19,0.372996610850334,0.007576631922834093,0.3648005984115829,0.3859341941656573,0.06334784415780663,0.02711405172553023,0.03093637753897724,0.1104003712167171,0.07832306758320774,0.13360563968066747,3.823279395298584e-06,0.5158293784754279,-0.12090942016983693,0.00434922146187224,-0.12818505578783546,-0.1138948468216609,-0.1027167897545474,1.317216148859322,-2.0538330078125,2.62298583984375,35.90333333333332,0.009428090415818758,35.89,35.91,0.05423728813559322,-0.0008255933952526737,0,1,0
0,0.024504933294475943,0.017921463168760157,0.0,0.05022790728770975,0.024337557401838596,0.018148085985016327,-0.00206415959625909,0.050227883508971186,1.6745534220170518e-05,1.2486848613235511e-05,-1.4202516129428298e-06,3.455945591494219e-05,1.6745534220170518e-05,1.2486848613235511e-05,-1.4202516129428298e-06,3.455945591494219e-05,4.880135593220336,56.43141455903933,-116.67,126.35,0.3776809207489327,0.011322380834281168,0.35438596512402326,0.3892098000433985,0.09510942625479557,0.023474830187917708,0.059654361967216255,0.12320395872593537,0.05334480502391753,0.09756003212215968,4.327437475026841e-08,0.3039131127416237,-0.13753095407509244,0.005158135437337416,-0.14596803068062875,-0.12909309025241844,0.3684827175093052,1.5454639972418165,-2.29949951171875,2.88238525390625,35.89842105263157,0.00987455949436315,35.89,35.91,0.08135593220338982,-0.0009824561403506816,0,1,0
0,0.034468205131552965,0.003650848245550566,0.026146033930588636,0.04747569318975305,0.034468188813723204,0.003650846517177423,0.02614602155261514,0.04747567071395907,2.371594756850567e-05,2.511976624300285e-06,1.7989853763942512e-05,3.2665787097685084e-05,2.371594756850567e-05,2.511976624300285e-06,1.7989853763942512e-05,3.2665787097685084e-05,-5.652959183673472,93.36489406604777,-224.39,176.63,0.3539713542760403,0.006839199372893451,0.3459713052667301,0.367355069355206,0.03941199510740766,0.012267303426032392,0.024611322730996615,0.06534795643795502,0.012316402798834745,0.029643687693482097,5.999108343424098e-08,0.12009216618678276,-0.15388605003974545,0.004064056386308719,-0.16011146106554208,-0.14687577186823897,0.08749666048338632,1.4918029469934733,-2.471923828125,2.606201171875,35.89444444444443,0.008314794192829326,35.89,35.91,0.13605442176870747,0.0,0,1,0
0,0.029675233641233787,0.015453281926862364,0.0006880535244891746,0.05435622843464479,0.029253962532016575,0.016236626196370726,-0.00619247878877727,0.054356202701489366,2.0128282496355302e-05,1.1171662591370119e-05,-4.260754838828489e-06,3.739995914082785e-05,2.0128282496355302e-05,1.1171662591370119e-05,-4.260754838828489e-06,3.739995914082785e-05,0.13596610169492127,105.58142128715545,-302.52,276.54,0.35113770449756626,0.0056003298193368495,0.3443925650153626,0.3603099615871197,0.04079101660342044,0.015101559448885507,0.018467024509189838,0.061582674447789525,0.04019254236228477,0.09478299945123342,9.836409553543035e-08,0.3328626308938673,-0.16456377238355763,0.0020029909190777137,-0.16725775164524248,-0.16070756382764972,0.09787301567588787,1.4933899324519404,-2.16217041015625,2.61077880859375,35.88999999999999,0.012977713690460727,35.87,35.91,0.08135593220338982,0.001122807017543761,0,1,0
0,0.03871695778341796,0.0013751643591348953,0.028898248028545334,0.041283211469350475,0.03871693945415699,0.0013751637081088936,0.02889823434762726,0.041283191925181796,2.6639314037360078e-05,9.461857881734056e-07,1.9883522581199616e-05,2.8405032258856593e-05,2.6639314037360078e-05,9.461857881734056e-07,1.9883522581199616e-05,2.8405032258856593e-05,3.4975932203389837,57.229374725708375,-215.74,177.66,0.34684225798508544,0.0034397073598470837,0.34094915277230864,0.35228706487691314,0.031023578182476294,0.010757997355521371,0.012995660674064755,0.04422303449597556,0.008104174379490346,0.031764966973001164,1.6902223071157962e-07,0.13893903373910932,-0.1680036522233624,0.00022665772624169155,-0.16820644045833533,-0.16742234480402812,-0.3532189520996548,1.1531387517986331,-2.34832763671875,1.9744873046875,35.885555555555555,0.008314794192832282,35.87,35.89,0.10847457627118644,-0.0004953560371517803,0,1,0
0,0.031219843594168663,0.015555466169724214,0.0,0.0626128707285149,0.030807933021717294,0.01635607754827168,-0.00894469158378939,0.06261284108652573,2.119749686256171e-05,1.1253851476140952e-05,-6.154423656085595e-06,4.308096559259917e-05,2.119749686256171e-05,1.1253851476140952e-05,-6.154423656085595e-06,4.308096559259917e-05,-4.24105084745762,131.91822894523816,-449.14,338.57,0.3493090891477051,0.008687315579185456,0.33800492133647975,0.3606142616640011,0.036408879165298,0.021902390978917354,0.007048824063531626,0.06471014194611266,0.035385816363262775,0.1284877288336763,4.0942527479437274e-08,0.5722274379883605,-0.16713040158883952,0.0004980605937722635,-0.1679422000440205,-0.16642550289835173,0.2113820305533208,1.6759965901169023,-2.51007080078125,2.81829833984375,35.88894736842104,0.012093816097974733,35.87,35.91,0.13559322033898305,0.0013333333333332424,0,1,0
0,0.037346796407477005,0.00037456789530868523,0.03577878327343708,0.03853099737139378,0.03734677872687372,0.00037456771798192746,0.03577876633515756,0.03853097913016968,2.5696570566147083e-05,2.577225165070885e-07,2.461769462434238e-05,2.651136344159949e-05,2.5696570566147083e-05,2.577225165070885e-07,2.461769462434238e-05,2.651136344159949e-05,0.42312925170068166,71.14703677531807,-290.37,208.03,0.34071729610741486,0.0022236240449532937,0.3384913872751449,0.34906920052859935,0.015743589217095292,0.006954523632949443,0.008873702482740144,0.03214270334663464,0.00417424141548001,0.012319474247422912,4.252891883105292e-08,0.04816039192588964,-0.16746265592105558,0.0010763804177964637,-0.16984153391506907,-0.16640485426122298,0.3252133542195739,1.2621155472778869,-2.03094482421875,2.252197265625,35.873333333333335,0.01000000000000012,35.87,35.91,0.10884353741496598,-0.0003508771929823863,0,1,0
0,0.0372711155799304,0.00031376514594616675,0.036466836797926255,0.037842943846904606,0.037271097935155796,0.00031376499740445554,0.03646681953391059,0.03784292593141665,2.5644498155321393e-05,2.1588701012087186e-07,2.5091111828656657e-05,2.6037946237285214e-05,2.5644498155321393e-05,2.1588701012087186e-07,2.5091111828656657e-05,2.6037946237285214e-05,3.5748813559322046,16.17084379535342,-30.03,24.42,0.33522503232470924,0.0024256042530673002,0.3315544972068532,0.3389036067187041,0.005254289785615652,0.0018572069142194331,0.003086718966120737,0.00885818827608388,0.0017160225819635266,0.0060215816051244,2.401536405155502e-07,0.026171497235222156,-0.17722566624696015,0.004923355801010603,-0.18634526977553634,-0.17034821063888844,-0.2330712564902168,1.0769695376784385,-1.76544189453125,2.10723876953125,35.87277777777778,0.017258027296676064,35.84,35.89,0.13559322033898305,-0.002321981424148475,0,1,0
0,0.029768846365654095,0.014576240695966096,0.0006880535244891746,0.0571084425326015,0.029132266047883385,0.015810156275141745,-0.006880531987530299,0.05710841549650149,2.0044548841170455e-05,1.0878228597896568e-05,-4.7341720431427655e-06,3.929362795808496e-05,2.0044548841170455e-05,1.0878228597896568e-05,-4.7341720431427655e-06,3.929362795808496e-05,-19.351762711864406,75.72219117862905,-350.65,137.5,0.3380159348245872,0.010290026336667044,0.32301863199553005,0.3568084859483366,0.0397373877937164,0.031755915708862194,0.0023698396669933853,0.07924745154371558,0.04756239563881994,0.18592842732811793,6.073792113703291e-08,0.8351373018281556,-0.2022299554936838,0.00936122299575512,-0.2183564858567163,-0.18771312564625103,0.39553535783261284,1.5360157792605658,-2.606201171875,2.79083251953125,35.860000000000014,0.020261449005177297,35.84,35.89,0.02711864406779661,-0.0019122807017543295,0,1,0
0,0.03818697060914924,0.0039008382443213884,0.025457980406099465,0.061236763679536545,0.03818695253079316,0.0039008363975987365,0.02545796835386211,0.06123673468901967,2.6274654839442355e-05,2.683982961180052e-06,1.7516436559628233e-05,4.2134131183970615e-05,2.6274654839442355e-05,2.683982961180052e-06,1.7516436559628233e-05,4.2134131183970615e-05,16.26064406779663,125.69996831543132,-400.42,421.48,0.3216218093816521,0.009171457264343683,0.3121689345923872,0.3410499784002059,0.02435092960652159,0.011305030752833803,0.01344162035277443,0.04844070194441307,0.005956802639100962,0.01684464927628638,4.831964695029001e-08,0.05506577390409967,-0.23791651086295262,0.010913569464288479,-0.25599191942185734,-0.2203240340763798,-0.16317814357377639,1.4498811387581838,-2.520751953125,2.29644775390625,35.854444444444454,0.017708197167231134,35.83,35.87,0.05423728813559322,-0.0010732714138288865,0,1,0
0,0.030279035713744674,0.014398886247191177,0.0,0.06054871015504737,0.029904570658728636,0.015161250550332357,-0.006880531987530299,0.06054868149026664,2.0575935499074228e-05,1.0431746938252315e-05,-4.7341720431427655e-06,4.166071397965634e-05,2.0575935499074228e-05,1.0431746938252315e-05,-4.7341720431427655e-06,4.166071397965634e-05,17.08510204081632,44.047633637588525,-66.04,225.5,0.31348623951737975,0.008836959626758317,0.3058077989884878,0.3309266279493162,0.03727282722118546,0.032310450250167114,0.013412169741091533,0.09708551379326022,0.057584800445494806,0.1536400699119133,5.344710052312962e-08,0.6369073733109565,-0.2767776960738457,0.01106814986992825,-0.2943603968913331,-0.25814347427365836,-0.046405644379844964,1.7174196243219875,-2.87322998046875,3.22418212890625,35.83,0.0,35.83,35.83,0.16326530612244897,0.0,0,1,0
0,0.03806761438551326,0.0032984838979810234,0.031650462126502035,0.0571084425326015,0.03806759636366261,0.0032984823364231096,0.03165044714263938,0.05710841549650149,2.6192531446857285e-05,2.2695313226062862e-06,2.177719139845672e-05,3.929362795808496e-05,2.6192531446857285e-05,2.2695313226062862e-06,2.177719139845672e-05,3.929362795808496e-05,-16.872440677966075,136.50387425361413,-333.66,387.3,0.30501220088616154,0.009608904708832166,0.2964285930998333,0.32925557213981693,0.04728468135193144,0.01984955400041695,0.029814226883943515,0.08921949302261102,0.011397438455453983,0.02641816529866525,5.001813008220779e-08,0.09084000547172089,-0.308631199853737,0.006965337590775736,-0.3187555218072571,-0.29612020863193206,0.03024914084921851,1.5495758371813468,-2.825927734375,2.65960693359375,35.83222222222223,0.004157397096417617,35.83,35.84,0.08135593220338982,0.00016511867905065207,0,1,0
0,0.037308307662335255,0.00028639563764404027,0.03715489032241543,0.037842943846904606,0.03730828999995325,0.00028639550205951744,0.037154872732663616,0.03784292593141665,2.5670088274473506e-05,1.9705534130053105e-07,2.5564529032970932e-05,2.6037946237285214e-05,2.5670088274473506e-05,1.9705534130053105e-07,2.5564529032970932e-05,2.6037946237285214e-05,3.2959322033898317,16.97065644172907,-44.26,30.81,0.2917797390064044,0.0026282340880249837,0.2868168646781455,0.29603674565390187,0.020875736485004036,0.0048354152399070075,0.012093853586490474,0.02926752418030601,0.008136401239728515,0.015511529990097254,2.543742439187202e-07,0.05450087159644651,-0.32524632057284025,0.003091878899891265,-0.32998401530002724,-0.3196005072649944,0.22355829811569478,1.4437013345473493,-2.04925537109375,2.50091552734375,35.81736842105264,0.01617083315340691,35.79,35.83,0.13559322033898305,-0.0009122807017543789,0,1,0
0,0.030391370983049074,0.012832554707956469,0.0027522140979566985,0.05504428195913397,0.030391356595261376,0.012832548632808609,0.00275221279501212,0.055044255900242395,2.0910870119813577e-05,8.829476134957783e-06,1.8936688172571063e-06,3.7873376345142124e-05,2.0910870119813577e-05,8.829476134957783e-06,1.8936688172571063e-06,3.7873376345142124e-05,12.660372881355935,40.49399067612265,-39.49,155.15,0.28604559193862317,0.006808735416192929,0.2814310977884885,0.30749983869523295,0.014888122218965941,0.021376150817169922,0.0022651178079228233,0.07943744830531027,0.05279778138632621,0.17887044205888064,1.7691340434278224e-07,0.7705594344191358,-0.33619413646130103,0.003999120000526011,-0.34371137249199984,-0.3304906820708524,-0.06066019624573379,1.3165567719001328,-2.33306884765625,2.252197265625,35.80555555555556,0.015713484026367724,35.79,35.83,0.13559322033898305,-0.00148606811145493,0,1,0
0,0.03277849545576663,0.014672830773007177,0.0006880535244891746,0.059860656630558194,0.03250700316557682,0.015264837086534633,-0.00619247878877727,0.05986062829151361,2.2366547509950015e-05,1.0503019985834064e-05,-4.260754838828489e-06,4.1187296775342064e-05,2.2366547509950015e-05,1.0503019985834064e-05,-4.260754838828489e-06,4.1187296775342064e-05,-16.700782312925185,135.63199854377953,-428.17,285.6,0.29493961651485406,0.01257305275829904,0.2773949761219805,0.3114652922928663,0.06493848848015027,0.025004146083264105,0.025198321403476512,0.09737310031391469,0.01265686729683872,0.05218044006744462,4.2224260976553296e-08,0.22780233293621377,-0.35761582984125617,0.008201083380947575,-0.3715492840104853,-0.34493167389775026,-0.06429610713835686,1.7083987921318666,-3.08990478515625,2.95257568359375,35.80111111111111,0.009938079900000618,35.79,35.81,0.16326530612244897,-0.0009907120743035606,0,1,0
0,0.029139996564176655,0.013104998482974107,0.004128321146935048,0.056420389008112325,0.029139982768810753,0.01310499227884677,0.00412831919251818,0.05642036229774846,2.0049858355688407e-05,9.01693185709428e-06,2.8405032258856597e-06,3.882021075377068e-05,2.0049858355688407e-05,9.01693185709428e-06,2.8405032258856597e-06,3.882021075377068e-05,11.105016949152546,63.60125465063803,-159.63,172.53,0.2841520937182358,0.008783040903337803,0.27444180983690425,0.2964887821227874,0.05963935089271608,0.033420407760554514,0.023455145337372446,0.10383133735324514,0.07279104828215,0.12943970346446673,1.6163340377239876e-07,0.427052268248425,-0.3875462373226247,0.008236216249507279,-0.40000725884831434,-0.3732656302999785,0.017033617194769694,1.6285648072099923,-2.77252197265625,2.68402099609375,35.79,0.0,35.79,35.79,0.08135593220338982,0.0,0,1,0
0,0.04063260303462949,0.002629884511438631,0.032338515650991204,0.05022790728770975,0.04063258379846979,0.0026298832664069386,0.03233850034139241,0.050227883508971186,2.795737925613766e-05,1.809499593798362e-06,2.2250608602771e-05,3.455945591494219e-05,2.795737925613766e-05,1.809499593798362e-06,2.2250608602771e-05,3.455945591494219e-05,-9.534644067796611,110.07847404123203,-309.35,211.04,0.27431906242024223,0.008505953019172003,0.2641037585488045,0.291268370202976,0.05034924983112031,0.02114112763440718,0.01968923152331752,0.08971148934927888,0.008815893520264687,0.034074229784882434,7.377958000098772e-08,0.14901258691972696,-0.4064309135235456,0.002582482958788139,-0.40944220363548245,-0.4010457203448238,0.12255274210144858,1.5033119935112433,-2.45513916015625,2.484130859375,35.80333333333333,0.016329931618554495,35.79,35.83,0.05423728813559322,-0.001651186790505582,0,1,0
0,0.04007911780149449,0.0004146489790726459,0.03853099737139378,0.04197126499383966,0.040079098827364025,0.0004146487827708237,0.03853097913016968,0.04197124512393483,2.757655215130663e-05,2.853004213445168e-07,2.651136344159949e-05,2.8878449463170872e-05,2.757655215130663e-05,2.853004213445168e-07,2.651136344159949e-05,2.8878449463170872e-05,2.3720000000000017,15.532450942178649,-43.42,30.69,0.2626674541260487,0.0014857484670688654,0.2599846606816959,0.26497545205193895,0.017026078211596712,0.003970104968372094,0.008713253629749068,0.021624926265416556,0.009504595814651927,0.021919453322558357,3.1027369548630723e-07,0.07988566378520051,-0.4096215408356476,6.912306728323798e-05,-0.4097223590983518,-0.4095252195752309,0.2621250767861643,1.3247153980858122,-2.288818359375,2.38800048828125,35.79,0.0,35.79,35.79,0.16271186440677965,0.0,0,1,0
0,0.039476485888038884,0.0003696221103818799,0.039219050895882956,0.04059515794486131,0.03947646719920449,0.00036962193539653675,0.03921903232892271,0.04059513872642877,2.7161909531881664e-05,2.5431955497887324e-07,2.6984780645913764e-05,2.7931615054542318e-05,2.7161909531881664e-05,2.5431955497887324e-07,2.6984780645913764e-05,2.7931615054542318e-05,0.39775510204081654,9.922218851306507,-23.37,15.36,0.25707530319660665,0.0017875888689632361,0.2542807464259879,0.26033962392517435,0.0033139203389147363,0.0020417354187825666,0.0009432021972978199,0.0077371603079472275,1.5163467380611202e-07,4.313986822014489e-08,9.758772374912628e-08,2.485336688673456e-07,-0.4122739883538573,0.002063952607779353,-0.4163398768332381,-0.40974619074171004,-0.019533995067511245,1.2330308059600192,-1.98211669921875,2.28271484375,35.778888888888886,0.009938079899997086,35.77,35.79,0.13605442176870747,-0.00033023735810106946,0,1,0
0,0.03941095698094469,0.00035695797399847343,0.03853099737139378,0.03990710442037213,0.039410938323132756,0.0003569578050085456,0.03853097913016968,0.03990708552767574,2.7116822179089824e-05,2.4560595955599004e-07,2.651136344159949e-05,2.745819785022804e-05,2.7116822179089824e-05,2.4560595955599004e-07,2.651136344159949e-05,2.745819785022804e-05,-0.675661016949153,12.908815362169449,-27.47,23.13,0.2521100805540523,0.0016386444506201686,0.24940179372473,0.2543227781409118,0.00035192851462392864,0.00021938904555856968,9.936878367804638e-05,0.0008323338240677112,1.8417580330582614e-07,4.458262454119591e-08,1.4209042113570713e-07,3.0443272309738784e-07,-0.424011741112607,0.0045702862085107345,-0.4319133263472101,-0.4170137280529439,-0.046542383963892334,1.3162906113836934,-2.11639404296875,2.12249755859375,35.76555555555556,0.015713484026367724,35.75,35.79,0.16271186440677965,-0.0018163054695564688,0,1,0
0,0.03939571328730589,0.0017175686604698225,0.03096240860201286,0.042659318518328826,0.03939569463671062,0.0017175678473438465,0.03096239394388635,0.04265929832268786,2.7106333711886373e-05,1.1817780514402896e-06,2.1303774194142445e-05,2.935186666748515e-05,2.7106333711886373e-05,1.1817780514402896e-06,2.1303774194142445e-05,2.935186666748515e-05,-0.3368813559322029,13.453821098054858,-33.67,23.14,0.24658534662234774,0.001332715535181273,0.24380233473925172,0.2485814275779731,0.0017472733508869594,0.0015665859913036554,4.3484398411259725e-05,0.004040323115415781,0.0043363767881938655,0.009449140558375656,4.152732845125618e-07,0.032425369134558554,-0.4427736024529196,0.0060845646207672265,-0.45289280759377193,-0.43294594887167137,0.2975416538437306,1.3287813508028423,-2.239990234375,2.32086181640625,35.75,0.0,35.75,35.75,0.13559322033898305,0.0,0,1,0
0,0.029586301553034513,0.01490692621440596,0.0,0.053668174910155624,0.029586287546380305,0.014906919157215636,0.0,0.05366814950273634,2.035693978551389e-05,1.0256753409675038e-05,0.0,3.6926541936513574e-05,2.035693978551389e-05,1.0256753409675038e-05,0.0,3.6926541936513574e-05,6.732312925170064,52.81217003204768,-133.46,179.15,0.24826410720168635,0.007592478832958424,0.2416610568165783,0.2617580893359861,0.025116512716561026,0.024130613275117375,0.004770590898126932,0.06191591726098499,0.036931840762561105,0.14127019971918026,5.048273732377595e-08,0.6177148725376183,-0.4637404976487315,0.005893091373469489,-0.47331944700889594,-0.45403902334626356,0.08502751958577272,1.7289763284148503,-2.67181396484375,2.70843505859375,35.75444444444444,0.008314794192832278,35.75,35.77,0.27210884353741494,0.0003302373581011868,0,1,0
0,0.03920968962344102,0.003284612914757739,0.03096240860201286,0.05022790728770975,0.03920967106091242,0.0032846113597665813,0.03096239394388635,0.050227883508971186,2.6978339595514925e-05,2.2599873527479346e-06,2.1303774194142445e-05,3.455945591494219e-05,2.6978339595514925e-05,2.2599873527479346e-06,2.1303774194142445e-05,3.455945591494219e-05,-9.525999999999987,215.1287057308338,-727.64,595.6,0.23917549099098592,0.0062134661112385,0.23314471805872736,0.2526157612382411,0.023496141186932856,0.013528877312250385,0.009523530318708956,0.05172887253632507,0.002165337088580955,0.006894299628489685,6.22171563158247e-08,0.029127652169245538,-0.48378121011778225,0.005548401340073623,-0.4926207861439873,-0.4744170131519434,-0.3374875922948492,1.498643173060443,-2.72369384765625,2.34527587890625,35.754210526315795,0.008153649149911627,35.75,35.77,0.05423728813559322,-0.0006315789473685197,0,1,0
0,0.03815442753704504,0.00043320694350191,0.03715489032241543,0.039219050895882956,0.03815440947409536,0.00043320673841443496,0.037154872732663616,0.03921903232892271,2.625226348518424e-05,2.9806928208741826e-07,2.5564529032970932e-05,2.6984780645913764e-05,2.625226348518424e-05,2.9806928208741826e-07,2.5564529032970932e-05,2.6984780645913764e-05,3.3655932203389827,13.493702771241036,-29.27,27.07,0.23078117244915713,0.0009985684337456397,0.2291146818256917,0.2324347317244151,0.011123412483254207,0.002086687789491536,0.008118990432810797,0.013792023461404743,0.010647109468242735,0.020962520347042473,1.6049080353575107e-06,0.0754119879798493,-0.5006281858644953,0.004178628384509027,-0.5072138395285158,-0.49352822219221476,0.4262031178795474,1.3932784831979614,-2.07366943359375,2.44903564453125,35.75888888888888,0.009938079900000616,35.75,35.77,0.13559322033898305,0.0009907120743035606,0,1,0
0,0.030082448992462082,0.014357512667916439,0.0006880535244891746,0.05435622843464479,0.029839041782656926,0.01485673049049708,-0.006880531987530299,0.054356202701489366,2.0530848146282385e-05,1.0222220936998187e-05,-4.7341720431427655e-06,3.739995914082785e-05,2.0530848146282385e-05,1.0222220936998187e-05,-4.7341720431427655e-06,3.739995914082785e-05,11.60454237288136,54.590261598574024,-175.57,174.97,0.23164178615021308,0.007240216235637891,0.2250089458180648,0.24613384015731937,0.025545571716344712,0.02191157017823459,0.006648497373023192,0.06355842785204832,0.03578506630841564,0.12381166027170043,6.094125226674407e-08,0.545516543539154,-0.5135744177115263,0.0032734572672160327,-0.5186684843723145,-0.5079170642499344,-0.3413235874980614,1.406592522297044,-2.62603759765625,2.545166015625,35.76263157894737,0.009647527778855908,35.75,35.77,0.16271186440677965,-0.0006315789473685197,0,1,0
0,0.04043601631334689,0.0034088273773386834,0.030274355077523685,0.05298012138566645,0.04043599717025464,0.003408825763542303,0.03027434074513332,0.05298009630398331,2.7822117197762128e-05,2.3454534705970255e-06,2.083035698982817e-05,3.64531247321993e-05,2.7822117197762128e-05,2.3454534705970255e-06,2.083035698982817e-05,3.64531247321993e-05,-15.629149659863947,153.6150190725212,-335.37,351.65,0.2274707984750236,0.006802384301212644,0.22098371556409044,0.2424884578466826,0.02667871883652323,0.0149916676126263,0.008122247599915361,0.056215258028955314,2.7005364255619194e-07,3.4501630413226143e-07,5.478557363325365e-08,1.209460522122452e-06,-0.523126859846449,0.0023755428633499918,-0.5269955990187188,-0.5191664018554762,0.2880744839424531,1.4829102684073938,-2.20489501953125,2.69775390625,35.75,0.0,35.75,35.75,0.08163265306122448,0.0,0,1,0
0,0.03970719697744631,0.00031238443453478036,0.039219050895882956,0.03990710442037213,0.039707178179389395,0.0003123842866467198,0.03921903232892271,0.03990708552767574,2.7320650959785397e-05,2.1493700766745853e-07,2.6984780645913764e-05,2.745819785022804e-05,2.7320650959785397e-05,2.1493700766745853e-07,2.6984780645913764e-05,2.745819785022804e-05,4.029186440677962,14.555765984856924,-33.65,24.5,0.21812764522996753,0.001284044987414661,0.21671881735586526,0.22083825178609603,0.0038455307233431035,0.0014390712050804833,0.0019395555365815636,0.007171694343103343,0.0022595538814123677,0.006437571579595604,1.3364967041407105e-06,0.027215043083102256,-0.5317597037882495,0.0027543855038295543,-0.5365193884009171,-0.5274570987356308,0.10237970449818685,1.3081646822472517,-2.09197998046875,2.16827392578125,35.75555555555556,0.008958064164777567,35.75,35.77,0.13559322033898305,-0.0006398348813210495,0,1,0
0,0.03938755379983958,0.00038981579404455505,0.03853099737139378,0.04059515794486131,0.039387535153107146,0.0003898156094991818,0.03853097913016968,0.04059513872642877,2.7100719553092733e-05,2.6821387703977394e-07,2.651136344159949e-05,2.7931615054542318e-05,2.7100719553092733e-05,2.6821387703977394e-07,2.651136344159949e-05,2.7931615054542318e-05,-0.09200000000000035,12.050932493633084,-31.89,25.04,0.21373857741152685,0.001863793795056007,0.20970065779282024,0.2168155796108622,0.0021083887534077412,0.0011666462297985041,0.000619679648615521,0.004224589265107279,3.9241495175133153e-07,2.239067296498405e-07,1.197241075463068e-07,8.759215472803339e-07,-0.5436817104142843,0.004125304403600499,-0.5506578926129481,-0.5371623755902014,-0.11400644004197037,1.247763975391244,-2.25067138671875,2.12860107421875,35.77421052631578,0.00815364914990873,35.77,35.79,0.13559322033898305,0.001052631578947159,0,1,0
0,0.03920045485468068,0.0001950369255402445,0.03853099737139378,0.03990710442037213,0.03920043629652402,0.00019503683320647378,0.03853097913016968,0.03990708552767574,2.697198558633765e-05,1.341957169623753e-07,2.651136344159949e-05,2.745819785022804e-05,2.697198558633765e-05,1.341957169623753e-07,2.651136344159949e-05,2.745819785022804e-05,-0.43461016949152564,11.627600322285415,-25.02,14.92,0.20789765860715514,0.0012231301629894266,0.2058901406345362,0.20973224376284227,0.00023186219567414043,0.0001442229915977424,6.562883611562976e-05,0.0005472729982164735,2.0988001139532956e-07,5.249429551905805e-08,1.4026189412859845e-07,2.8641312062663293e-07,-0.5583497593808726,0.004161803291251447,-0.5650607540527459,-0.551471077843743,0.14063556705466568,1.3208452866418667,-2.39715576171875,2.008056640625,35.77,0.013333333333333051,35.75,35.79,0.13559322033898305,0.0006604747162020804,0,1,0
0,0.03911607689902076,0.0004273500332203725,0.03715489032241543,0.03990710442037213,0.03911605838081001,0.0004273498309056577,0.037154872732663616,0.03990708552767574,2.691392909152658e-05,2.9403941814120353e-07,2.5564529032970932e-05,2.745819785022804e-05,2.691392909152658e-05,2.9403941814120353e-07,2.5564529032970932e-05,2.745819785022804e-05,-1.809965986394557,13.037778036202798,-32.71,24.25,0.2034003846851124,0.0011866735907085765,0.20140987278395373,0.20561166487079394,0.00019881059243044872,0.00024918971869531894,1.4904675891990747e-05,0.0006450987377055999,0.0003665001520640262,0.0015315603110538352,1.3755811607580465e-07,0.006864025624889633,-0.5719237505639502,0.00358319266818954,-0.5776133818444161,-0.5658073577341011,0.27470646348110467,1.3602576310469203,-2.14996337890625,2.43682861328125,35.78368421052632,0.009296590385606412,35.77,35.79,0.16326530612244897,-0.0003157894736841477,0,1,0
0,0.03899906099349536,0.00032088825241403826,0.03853099737139378,0.039219050895882956,0.03899904253068196,0.00032088810050012604,0.03853097913016968,0.03921903232892271,2.6833415961541133e-05,2.2078808399089513e-07,2.651136344159949e-05,2.6984780645913764e-05,2.6833415961541133e-05,2.2078808399089513e-07,2.651136344159949e-05,2.6984780645913764e-05,1.4252542372881358,13.067539905148621,-26.78,22.32,0.19998904321175562,0.0014549468319090403,0.19802452178390817,0.20323167748100326,0.00030132003116857596,0.00015638195515295118,9.720390099416164e-05,0.0005897300360956583,1.6598311493352114e-05,6.656470349586659e-05,1.667002326745902e-07,0.0002910384135142458,-0.5831152626460148,0.0029884306143462356,-0.5880271017757215,-0.5782040313188123,-0.2753920263656725,1.3435731496971253,-2.4658203125,2.252197265625,35.79,0.0,35.79,35.79,0.13559322033898305,0.0,0,1,0
0,0.038763447886424,0.0005217672720469031,0.036466836797926255,0.03990710442037213,0.03876342953515379,0.000521767025033474,0.03646681953391059,0.03990708552767574,2.6671301686300256e-05,3.590034705781336e-07,2.5091111828656657e-05,2.745819785022804e-05,2.6671301686300256e-05,3.590034705781336e-07,2.5091111828656657e-05,2.745819785022804e-05,0.2289830508474575,14.378434144834406,-32.98,37.36,0.19606811117513392,0.0012474022670908576,0.1939589025972066,0.1977462593786023,3.509972117029622e-05,2.2810988575687572e-05,9.302005957625577e-06,8.589950800117139e-05,1.9878451923131275e-07,3.419842776191661e-08,1.5592798743944286e-07,2.641364069821007e-07,-0.5942520024232462,0.0035110465172032692,-0.6001328089555655,-0.5886179925834648,0.2249810003465222,1.501640440875568,-2.34527587890625,2.44903564453125,35.80052631578946,0.01637510440642508,35.77,35.81,0.13559322033898305,0.002140350877192993,0,1,0
0,0.03849823291784674,0.00023167967285028532,0.037842943846904606,0.039219050895882956,0.03849821469213378,0.00023167956316922029,0.03784292593141665,0.03921903232892271,2.6488819765203617e-05,1.594078645242866e-07,2.6037946237285214e-05,2.6984780645913764e-05,2.6488819765203617e-05,1.594078645242866e-07,2.6037946237285214e-05,2.6984780645913764e-05,-0.21220338983050852,15.209313434375439,-34.68,27.33,0.19218423868628592,0.0013880854893126694,0.18972683365323734,0.19462149977841314,0.0005602076516496776,0.0003617791824945,5.834892820542839e-06,0.0009854058817213452,0.0005951913075662934,0.002450846453914416,1.860394647154595e-07,0.010700289340599743,-0.6065428124513699,0.003483015114931653,-0.6121954535582713,-0.600808259429567,0.18208853176873255,1.36493378643726,-2.459716796875,2.22930908203125,35.80555555555556,0.008314794192832282,35.79,35.81,0.16271186440677965,-0.0004953560371517803,0,1,0
0,0.03854035864383587,0.00016023917301344703,0.037842943846904606,0.039219050895882956,0.03854034039817987,0.00016023909715351967,0.03784292593141665,0.03921903232892271,2.651780449199837e-05,1.102530233617764e-07,2.6037946237285214e-05,2.6984780645913764e-05,2.651780449199837e-05,1.102530233617764e-07,2.6037946237285214e-05,2.6984780645913764e-05,-0.9125850340136059,13.614136964581645,-28.1,21.82,0.18856552115022282,0.0010712695649510197,0.186339037256273,0.19055840024396895,0.0001946568124560731,0.00011854667229486417,5.6126591664839915e-05,0.0004495280404100784,4.974762251798731e-07,2.7863900192706495e-07,2.182562745421321e-07,1.3531077371533445e-06,-0.6179467058073178,0.0030182528317175303,-0.6227237639451896,-0.6128383801837085,-0.281778813591666,1.1435932998145621,-2.27203369140625,1.90887451171875,35.83222222222222,0.004157397096417618,35.83,35.84,0.16326530612244897,0.0004127966976266302,0,1,0
0,0.03854494440229565,0.00018706129337439263,0.037842943846904606,0.039219050895882956,0.038544926154468674,0.00018706120481642012,0.03784292593141665,0.03921903232892271,2.6520959736281584e-05,1.287080603365339e-07,2.6037946237285214e-05,2.6984780645913764e-05,2.6520959736281584e-05,1.287080603365339e-07,2.6037946237285214e-05,2.6984780645913764e-05,0.9122372881355924,13.445051351408045,-29.99,21.69,0.18481330607614893,0.001562638178611113,0.18255428065961354,0.1874929898777026,2.023768459423879e-05,1.3161664549321339e-05,5.3830824406292015e-06,4.9570910194142985e-05,1.5264471544467316e-07,8.662685288253541e-08,7.400679946374233e-08,4.0625260685238287e-07,-0.6276660469887347,0.0026413706349776886,-0.6319464563709241,-0.6232430865026761,0.3461449672803098,1.3587448765046346,-2.15301513671875,2.30712890625,35.82789473684211,0.017038330585514027,35.81,35.87,0.16271186440677965,0.0005614035087719801,0,1,0
0,0.038563761824940944,0.0002019736562453917,0.037842943846904606,0.039219050895882956,0.03856374356820549,0.00020197356062765523,0.03784292593141665,0.03921903232892271,2.6533907117995453e-05,1.3896855445339723e-07,2.6037946237285214e-05,2.6984780645913764e-05,2.6533907117995453e-05,1.3896855445339723e-07,2.6037946237285214e-05,2.6984780645913764e-05,-1.0938644067796608,11.927444125689501,-27.11,19.42,0.1834207176737147,0.0007339434039247327,0.18223821049149377,0.18492644080417306,0.0034350048011006365,0.00224608593028147,3.4805112754532104e-06,0.005367658868944225,0.004653668167254879,0.009588489543070029,4.983468587478813e-07,0.03527805229172271,-0.6364440095190198,0.0024898090865978478,-0.6405856422630365,-0.63241267165442,-0.09947660507121664,1.4266684947945634,-2.239990234375,2.31170654296875,35.84111111111113,0.013698697784375016,35.83,35.87,0.13559322033898305,-0.001527347781217542,0,1,0
0,0.0386193285671053,0.00023016122696012674,0.03853099737139378,0.039219050895882956,0.03861931028406361,0.0002301611179979185,0.03853097913016968,0.03921903232892271,2.6572139974585815e-05,1.5836309346704136e-07,2.651136344159949e-05,2.6984780645913764e-05,2.6572139974585815e-05,1.5836309346704136e-07,2.651136344159949e-05,2.6984780645913764e-05,0.9123728813559321,13.828696194407872,-29.21,22.45,0.18017729865407328,0.0016539360449260374,0.17731908115399148,0.1835545869804264,0.0022295296527572992,0.0012972970214006735,0.0006325269444433908,0.00476674986988484,3.338762287065732e-07,2.0231506606629734e-07,1.1643951441063505e-07,7.489617388639624e-07,-0.6458568608956735,0.002951704310754841,-0.6507919217421565,-0.6410926827739949,0.008374349059301334,1.4035846500797162,-2.227783203125,2.337646484375,35.85842105263159,0.015308462707628158,35.83,35.87,0.16271186440677965,0.0002631578947369019,0,1,0
0,0.03865737454936124,0.0002895948628676705,0.037842943846904606,0.039219050895882956,0.03865735624830795,0.0002895947257685769,0.03784292593141665,0.03921903232892271,2.659831762198377e-05,1.9925657740707572e-07,2.6037946237285214e-05,2.6984780645913764e-05,2.659831762198377e-05,1.9925657740707572e-07,2.6037946237285214e-05,2.6984780645913764e-05,-1.0187755102040816,14.627306139381323,-33.12,20.74,0.17551671530913718,0.001096142362607632,0.17404828657086246,0.1778438653607639,0.00038820472173448393,0.00023280678970567285,0.00012509612131119942,0.0008989951784020584,0.0005072150007002485,0.002084788242291397,1.218203015893038e-07,0.009103003598836493,-0.6563944302589395,0.003117915507030119,-0.6615770788781734,-0.6513626244447088,0.3292575959236391,1.4143897969920531,-2.23846435546875,2.44903564453125,35.84666666666668,0.01247219128924399,35.84,35.87,0.13605442176870747,0.0017337461300306147,0,1,0
0,0.03211384511238251,0.014332902969408222,0.0,0.05504428195913397,0.03199213342501335,0.014602512912858709,-0.00481637239127121,0.055044255900242395,2.2012289738014155e-05,1.0047305719524861e-05,-3.313920430199936e-06,3.7873376345142124e-05,2.2012289738014155e-05,1.0047305719524861e-05,-3.313920430199936e-06,3.7873376345142124e-05,4.622542372881369,70.81696395909526,-259.92,200.5,0.17917005827898233,0.007192115976948661,0.17243328735453012,0.19081954300062853,0.019992090827118676,0.02162357481152802,0.0008963989181594416,0.05196907740053901,0.03186515759110188,0.08757723254387328,7.223432296754595e-08,0.29618001518442794,-0.6675131386025935,0.00321085143849563,-0.6726919674957011,-0.6622053686012521,-0.16190176456935504,1.5971036029281507,-2.81219482421875,2.84423828125,35.892222222222216,0.019876159799997708,35.87,35.91,0.13559322033898305,0.0006604747162022562,0,1,0
0,0.040330164357727044,0.002581314563569298,0.03371462269996956,0.0516040143366881,0.040330145264746896,0.0025813133415314407,0.03371460673889847,0.05160398990647725,2.7749285455583448e-05,1.7760809016245806e-06,2.3197443011399553e-05,3.550629032357074e-05,2.7749285455583448e-05,1.7760809016245806e-06,2.3197443011399553e-05,3.550629032357074e-05,-6.990203389830526,148.94771703336096,-409.52,347.37,0.1740808921682496,0.0051472767657867995,0.168917013588334,0.18640315001507418,0.01896933267102678,0.011188990776306461,0.006619495480819098,0.04230619493302293,0.0037124496646608455,0.015745490724768493,5.4803046656282106e-08,0.07051490838995537,-0.6778821194992432,0.002637833666783299,-0.6818810968603772,-0.6732690600140399,-0.19122092954574094,1.445542896922384,-2.4688720703125,2.459716796875,35.897368421052626,0.009647527778852482,35.89,35.91,0.08135593220338982,-0.001052631578947159,0,1,0
0,0.03997263332746641,0.0002451867192762632,0.039219050895882956,0.04059515794486131,0.03997261440374746,0.000245186603200734,0.03921903232892271,0.04059513872642877,2.7503285203019917e-05,1.6870142662365623e-07,2.6984780645913764e-05,2.7931615054542318e-05,2.7503285203019917e-05,1.6870142662365623e-07,2.6984780645913764e-05,2.7931615054542318e-05,4.397585034013603,15.193303123883158,-37.3,32.83,0.16899991942030745,0.0013123339329977133,0.16634901892181905,0.17070096394763348,0.007306463127881021,0.001966418448879273,0.0039770898207875036,0.010014611293050792,0.0023274645337929955,0.005387410338728934,3.945630904500508e-07,0.018122063499624336,-0.6844759192962957,0.0012209757488129715,-0.6862535295909225,-0.6822294136854354,0.32049278467523845,1.3472069781553908,-2.27203369140625,2.31781005859375,35.911111111111104,0.01242259987499876,35.89,35.93,0.16326530612244897,-0.00026831785345688433,0,1,0
0,0.04020666513851714,0.001670154373254456,0.03577878327343708,0.053668174910155624,0.04020664610400356,0.0016701535825752037,0.03577876633515756,0.05366814950273634,2.766431146299076e-05,1.1491545148997022e-06,2.461769462434238e-05,3.6926541936513574e-05,2.766431146299076e-05,1.1491545148997022e-06,2.461769462434238e-05,3.6926541936513574e-05,-0.5689152542372886,11.833182338114096,-25.5,20.07,0.16618582693802111,0.0011689020770870781,0.1645363405535524,0.16767859459107598,0.002328278104264564,0.0011649723651392158,0.0007322415537706281,0.004109521133040616,4.262293057454525e-06,1.0217660558818306e-05,1.3124282473991888e-07,3.6867407151724985e-05,-0.6877902602091741,0.0008468213293732947,-0.6892502769439043,-0.6864156673933586,0.18871771194798775,1.4480946130199748,-2.16217041015625,2.496337890625,35.911052631578926,0.007877173445840109,35.89,35.93,0.16271186440677965,0.0009122807017544163,0,1,0
0,0.01994425418958486,0.012253835210861517,0.0006880535244891746,0.0460995861407747,0.019934946731439144,0.012268949937551898,-0.00068805319875303,0.046099564316453005,1.371630386553796e-05,8.441690249873371e-06,-4.734172043142766e-07,3.1718952689056526e-05,1.371630386553796e-05,8.441690249873371e-06,-4.734172043142766e-07,3.1718952689056526e-05,-6.312813559322029,80.38407155575347,-155.91,201.61,0.17455082686287737,0.006257246930128317,0.16528111944238186,0.18397679558161625,0.03292099766131672,0.013958619222332809,0.000647008085081924,0.05014745752059144,0.055315570973684995,0.12881877479942402,4.878782311479313e-08,0.4129655662505571,-0.691526225479371,0.0013717987755660424,-0.6939015622907497,-0.6894442393435829,-0.10324703622522688,1.4837796388122508,-2.79998779296875,2.38800048828125,35.912222222222205,0.006285393610548069,35.91,35.93,0.16271186440677965,-0.0006604747162023736,0,1,0
0,0.023857202818512405,0.014334251074592476,0.0,0.05229206786117727,0.02378230138002821,0.014458156445772833,-0.0034402659937651497,0.05229204310523028,1.6363488538237007e-05,9.947980790585737e-06,-2.3670860215713828e-06,3.5979707527885024e-05,1.6363488538237007e-05,9.947980790585737e-06,-2.3670860215713828e-06,3.5979707527885024e-05,7.14725423728813,99.05029794830115,-241.63,278.85,0.17804450684433193,0.0036165087806465193,0.1671931972128488,0.18141780674696656,0.046620585070755505,0.00923620031926179,0.025835071769877132,0.05498558437369198,0.015308722294472794,0.0362149605976988,1.520502516116906e-07,0.12179791741706936,-0.6969882330968606,0.0016721862544679846,-0.6996662680481405,-0.6942090698160175,0.17707957227531793,1.3735767010703392,-2.01873779296875,2.54058837890625,35.905789473684194,0.00815364914990873,35.89,35.91,0.08135593220338982,-0.0006315789473682954,0,1,0
0,0.03775869239492634,0.0035611491112841594,0.022705766308142764,0.0571084425326015,0.03775867451932448,0.0035611474253761087,0.022705755558849988,0.05710841549650149,2.5979976783695733e-05,2.450258877261145e-06,1.5622767742371126e-05,3.929362795808496e-05,2.5979976783695733e-05,2.450258877261145e-06,1.5622767742371126e-05,3.929362795808496e-05,-3.5085714285714213,149.90743764478293,-351.18,402.66,0.16380992552199167,0.0030684097470329214,0.1612146415538447,0.171558756541683,0.009911667343012362,0.006073555804492503,0.002833389364114116,0.02300581004516985,7.778609527400726e-07,9.645071383725368e-07,1.1088234586065226e-07,3.7536740753879583e-06,-0.7018287642258083,0.001056250213986841,-0.7034079766303719,-0.6999361003133749,0.0420279301721464,1.782080724805508,-2.789306640625,3.05023193359375,35.91999999999999,0.010000000000001563,35.91,35.93,0.10884353741496598,0.0016718266253872584,0,1,0
0,0.03760119531127333,0.00034740271903398504,0.036466836797926255,0.03853099737139378,0.03760117751023315,0.00034740255456767967,0.03646681953391059,0.03853097913016968,2.587161046279641e-05,2.390314389252668e-07,2.5091111828656657e-05,2.651136344159949e-05,2.587161046279641e-05,2.390314389252668e-07,2.5091111828656657e-05,2.651136344159949e-05,3.3184745762711887,17.127057017475664,-43.38,34.25,0.16052918931870783,0.0011417045575858875,0.1585756699858192,0.1624949314321511,0.0025280317975506102,0.0006669604654822628,0.0013822516798398174,0.003988646728102007,0.003522238709638555,0.010672338274162436,1.462652071612669e-07,0.043196721024751084,-0.7048094685369501,0.0007671017863310273,-0.7061056962252505,-0.703561258614056,-0.3686211917698476,1.4816869891570894,-2.83050537109375,2.26898193359375,35.90444444444444,0.014614384931072394,35.89,35.93,0.13559322033898305,-0.0015892672858617268,0,1,0
0,0.03759955076341185,0.0003289791419548811,0.03715489032241543,0.037842943846904606,0.03759953296315031,0.0003289789862106086,0.037154872732663616,0.03784292593141665,2.5870478926915546e-05,2.2635504378473898e-07,2.5564529032970932e-05,2.6037946237285214e-05,2.5870478926915546e-05,2.2635504378473898e-07,2.5564529032970932e-05,2.6037946237285214e-05,-0.6443389830508477,13.72465590888507,-31.12,17.98,0.15952890057420493,0.0014399485174008712,0.157567084112538,0.16193003669499595,0.002718048856648437,0.0013278165764587205,0.0008683996731394274,0.00469690690866437,1.9047738027991897e-07,7.777229829542347e-08,1.148967729153183e-07,4.307030870426276e-07,-0.7082593868166773,0.00133721421939526,-0.7106622208982648,-0.7062780440863753,0.5458746595359026,1.3602928781574455,-1.90277099609375,2.496337890625,35.89947368421051,0.009986139979477105,35.89,35.91,0.13559322033898305,0.000666666666666534,0,1,0
0,0.037443128961052737,0.00034876874035714647,0.036466836797926255,0.037842943846904606,0.03744311123484401,0.00034876857524414405,0.03646681953391059,0.03784292593141665,2.5762852456399935e-05,2.399713338212709e-07,2.5091111828656657e-05,2.6037946237285214e-05,2.5762852456399935e-05,2.399713338212709e-07,2.5091111828656657e-05,2.6037946237285214e-05,0.34806779661016923,14.422685026902379,-30.03,19.85,0.15678809547522085,0.000982704346492427,0.15485290850191252,0.15814206408063894,0.0003253919769167302,0.00020227952624661156,9.207754406040996e-05,0.0007673295765125196,2.1212925167195078e-07,5.831621277511237e-08,1.436805900406797e-07,3.2347774213577207e-07,-0.7139578301378178,0.0018720225040646846,-0.717091092622663,-0.7109811011693516,-0.03894707670575745,1.3823773325803559,-2.191162109375,2.63214111328125,35.89444444444443,0.008314794192829328,35.89,35.91,0.16271186440677965,0.0011558307533537434,0,1,0
0,0.03737019958858209,0.00031903952630344735,0.03715489032241543,0.037842943846904606,0.03737018189689932,0.0003190393752647561,0.037154872732663616,0.03784292593141665,2.571267319214415e-05,2.1951606267908432e-07,2.5564529032970932e-05,2.6037946237285214e-05,2.571267319214415e-05,2.1951606267908432e-07,2.5564529032970932e-05,2.6037946237285214e-05,-0.9899659863945577,16.242999821342178,-34.39,20.16,0.15490972651684762,0.0007372096339533027,0.15362961158579433,0.1560337277590646,0.0010969656082359272,0.0009027516225602712,4.034382767726808e-05,0.0022357186314120275,0.001272381780486331,0.0053864082920466695,2.1846298198929803e-07,0.024124967590252195,-0.7208370231535415,0.002016535879013367,-0.7240808029156087,-0.7174721259076061,-0.169307738311531,1.3880960595933534,-2.38189697265625,2.25982666015625,35.8857894736842,0.008153649149911625,35.87,35.89,0.13605442176870747,-0.0006315789473685197,0,1,0
0,0.03740296404212921,0.000330374676344262,0.03715489032241543,0.037842943846904606,0.03740294633493516,0.00033037451993931966,0.037154872732663616,0.03784292593141665,2.573521686854007e-05,2.2731524523074642e-07,2.5564529032970932e-05,2.6037946237285214e-05,2.573521686854007e-05,2.2731524523074642e-07,2.5564529032970932e-05,2.6037946237285214e-05,-0.4954576271186434,15.967544594702018,-35.38,19.47,0.15248554784586077,0.0009274947748002675,0.15101857110990355,0.15403766073900024,0.0005592250916270494,0.00033738165867019975,0.00016184840438734048,0.0012764696531300205,1.9760433662248986e-07,2.172821408841971e-08,1.5815907726188239e-07,2.4206486533024513e-07,-0.727273588937296,0.0017354431939318586,-0.7301256210298227,-0.7244228262294394,0.30414227406652383,1.364164231731877,-2.22320556640625,2.55584716796875,35.88999999999999,7.105427357601002e-15,35.89,35.89,0.13559322033898305,0.0,0,1,0
0,0.037410585888948536,0.0003324936285174197,0.03715489032241543,0.037842943846904606,0.03741056817814623,0.0003324934711093298,0.037154872732663616,0.03784292593141665,2.574046110214182e-05,2.28773196361273e-07,2.5564529032970932e-05,2.6037946237285214e-05,2.574046110214182e-05,2.28773196361273e-07,2.5564529032970932e-05,2.6037946237285214e-05,0.8247796610169494,15.488425504629834,-33.75,24.36,0.15000384971269504,0.0011138137868863954,0.14836933039465763,0.15222967225117703,5.816299655823702e-05,3.7967308356942754e-05,1.5356026516246013e-05,0.00014287116210206363,2.993289830893543e-07,2.4567926465289145e-07,1.3024693679836163e-07,9.519725737420397e-07,-0.733749721124122,0.0020609404690594474,-0.7372559927562625,-0.7304681483640373,-0.07464595823074985,1.255236205350066,-2.25372314453125,2.27813720703125,35.89421052631578,0.008153649149908732,35.89,35.91,0.13559322033898305,-0.0006315789473682954,0,1,0
0,0.037534021856317636,0.000342231015758889,0.03715489032241543,0.037842943846904606,0.03753400408707858,0.00034223085374095587,0.037154872732663616,0.03784292593141665,2.5825391574123716e-05,2.354730336284458e-07,2.5564529032970932e-05,2.6037946237285214e-05,2.5825391574123716e-05,2.354730336284458e-07,2.5564529032970932e-05,2.6037946237285214e-05,-0.5659999999999998,15.815493720624675,-34.28,26.38,0.14783160436553444,0.0009435804404086222,0.1465556118701038,0.14938672409800288,0.00014880412184269996,0.00031127933663644894,3.340663065428545e-06,0.0010513438636151492,0.0006863221953714635,0.0028249515836891413,2.4784491901874185e-07,0.012333894060580327,-0.7413966192676099,0.0022818016902097387,-0.7451249886043508,-0.7376789782638903,-0.03761246527643112,1.2488384228892988,-2.11334228515625,2.28729248046875,35.90333333333332,0.009428090415818758,35.89,35.91,0.13559322033898305,-0.0008255933952526737,0,1,0
0,0.037529341220096636,0.00034267883670199075,0.03715489032241543,0.037842943846904606,0.03752932345307345,0.00034267867447205195,0.037154872732663616,0.03784292593141665,2.5822171048924303e-05,2.357811581149442e-07,2.5564529032970932e-05,2.6037946237285214e-05,2.5822171048924303e-05,2.357811581149442e-07,2.5564529032970932e-05,2.6037946237285214e-05,0.33112244897959237,15.918453943489377,-34.0,26.22,0.14549241479455227,0.0013057394149252946,0.14268281053504023,0.14792969002198197,0.0006569920412116255,0.0003139524284980129,0.0002225966355793698,0.0011346392499930924,2.9056835057451533e-07,2.2846600062713144e-07,1.5847105373431591e-07,1.1914714779766647e-06,-0.7488679858452412,0.0019262405663027769,-0.751825542196496,-0.7455522338912662,0.41486063311176913,1.151277614139237,-1.72882080078125,2.11334228515625,35.89444444444443,0.008314794192829326,35.89,35.91,0.13605442176870747,-0.00016511867905053473,0,1,0
0,0.034793193089709344,0.0062255368916964,0.015137177538761842,0.041283211469350475,0.03479317661802485,0.006225533944422222,0.01513717037256666,0.041283191925181796,2.3939556466811113e-05,4.283498544405279e-06,1.0415178494914085e-05,2.8405032258856593e-05,2.3939556466811113e-05,4.283498544405279e-06,1.0415178494914085e-05,2.8405032258856593e-05,5.260983050847458,73.66455039201242,-116.17,380.05,0.1473513010086361,0.0071370405063612445,0.14213966030426178,0.1654030760019093,0.008610504136909815,0.013987769090909914,0.00011222262902493729,0.03712529138850803,0.02137079455650997,0.08383029360253048,3.626094247088929e-08,0.3759758972185102,-0.7539420294830073,0.0009388608822137089,-0.7551480005048429,-0.7521105627588024,-0.32307362142330953,1.2017052108885031,-2.18963623046875,1.99432373046875,35.89842105263157,0.00987455949436315,35.89,35.91,0.13559322033898305,0.00014035087719295453,0,1,0
0,0.03747317358544439,0.0006962987187571281,0.036466836797926255,0.04059515794486131,0.037473155845012034,0.0006962983891175673,0.03646681953391059,0.04059513872642877,2.5783524746531353e-05,4.790903339189264e-07,2.5091111828656657e-05,2.7931615054542318e-05,2.5783524746531353e-05,4.790903339189264e-07,2.5091111828656657e-05,2.7931615054542318e-05,-4.939999999999998,26.912850802267034,-95.8,62.54,0.1485657788076588,0.001569010478501409,0.14659817659211258,0.1537242190187211,0.02013698966862661,0.00770012138859243,0.011018585837851013,0.03587702973040997,0.0071690513670824695,0.017866384033640506,4.00814429424301e-08,0.06294915264615386,-0.7549759769309056,0.0003421612984525852,-0.7552844847638472,-0.7541896112742961,0.1565136082454235,1.46340188123362,-2.35748291015625,2.5360107421875,35.9222222222222,0.017812466157648067,35.89,35.95,0.16271186440677965,-0.0013003095975235477,0,1,0
0,0.03731295667263589,0.0002894358967030881,0.03715489032241543,0.037842943846904606,0.037312939008052895,0.00028943575967925385,0.037154872732663616,0.03784292593141665,2.5673287039367518e-05,1.9914720028082484e-07,2.5564529032970932e-05,2.6037946237285214e-05,2.5673287039367518e-05,1.9914720028082484e-07,2.5564529032970932e-05,2.6037946237285214e-05,-0.5309491525423728,17.736712585380566,-35.34,29.6,0.14846739246093474,0.0005100415739382953,0.1474500460797647,0.149701530857227,0.012010948545854916,0.002521821461227108,0.0067341160657822625,0.016315422230739555,0.004427593083160762,0.010062814968137738,4.335642590780342e-07,0.03708506732760597,-0.7518460042466966,0.001452367188003484,-0.7540183182621154,-0.749330021175008,0.2004666008961112,1.5296362782015027,-2.5787353515625,2.38189697265625,35.92684210526315,0.007292845505554306,35.91,35.93,0.16271186440677965,0.0008421052631580263,0,1,0
0,0.03729530940904582,0.0002773054769951351,0.03715489032241543,0.037842943846904606,0.037295291752817386,0.00027730534571404673,0.037154872732663616,0.03784292593141665,2.5661144788953505e-05,1.9080083014986536e-07,2.5564529032970932e-05,2.6037946237285214e-05,2.5661144788953505e-05,1.9080083014986536e-07,2.5564529032970932e-05,2.6037946237285214e-05,0.47275510204081667,20.325645647330397,-37.56,34.15,0.14684043604022579,0.0005997123163865648,0.14552480036674703,0.14784610953785157,0.00259969204565701,0.0015868232181449919,0.0007452639048690114,0.006008784648078547,1.873067143084339e-07,7.817383104082707e-08,1.1565032185904822e-07,3.912935193500777e-07,-0.7468783653805102,0.0011944234497058568,-0.749035197436773,-0.7452092239053256,-0.2502758508876299,1.3119375034360263,-2.32086181640625,2.12554931640625,35.929999999999986,0.013333333333335418,35.91,35.95,0.13605442176870747,-0.0013209494324047473,0,1,0
0,0.03723914177439364,0.00022554645046315958,0.03715489032241543,0.037842943846904606,0.037239124144755914,0.00022554634368566714,0.037154872732663616,0.03784292593141665,2.5622498486560504e-05,1.5518788323997388e-07,2.5564529032970932e-05,2.6037946237285214e-05,2.5622498486560504e-05,1.5518788323997388e-07,2.5564529032970932e-05,2.6037946237285214e-05,0.059559322033898666,19.251643032915915,-37.82,34.55,0.14613734202981124,0.0006685561487994804,0.14505045223741728,0.14715247840861254,0.0002781637511677353,0.00017332741550118554,7.87023978929957e-05,0.0006577058390138599,2.7943311980154563e-07,1.8886627262370215e-07,1.1137605294975206e-07,7.485645518924989e-07,-0.7454331561027271,0.0005693453947863248,-0.7467238337078486,-0.7449105675593486,0.44149220674037193,1.3152564065808032,-2.07977294921875,2.36053466796875,35.9388888888889,0.009938079900000618,35.93,35.95,0.13559322033898305,0.0003302373581011868,0,1,0
0,0.03725251953872803,0.00024008886375509838,0.03715489032241543,0.037842943846904606,0.03725250190275704,0.00024008875009298236,0.037154872732663616,0.03784292593141665,2.5631703095745327e-05,1.6519383248609396e-07,2.5564529032970932e-05,2.6037946237285214e-05,2.5631703095745327e-05,1.6519383248609396e-07,2.5564529032970932e-05,2.6037946237285214e-05,-1.2978983050847464,19.7107664717766,-38.32,34.25,0.14506227084240866,0.0007823414297829397,0.1437194273979966,0.14669735266186334,2.855546315700716e-05,1.8345629709860046e-05,7.858282048554524e-06,6.951982319207695e-05,4.407326263481073e-07,1.3909754095079773e-07,2.830589523188402e-07,7.414614382225508e-07,-0.7497261595678338,0.0017142255813692078,-0.7525224531403042,-0.7469845218753077,-0.22450487311957196,1.3080971542259026,-2.41851806640625,2.14385986328125,35.91736842105261,0.009647527778855908,35.91,35.93,0.13559322033898305,-0.00021052631578950657,0,1,0
0,0.037285948136603825,0.00027018260548070257,0.03715489032241543,0.037842943846904606,0.037285930484807106,0.00027018247757170207,0.037154872732663616,0.03784292593141665,2.5654703738554663e-05,1.8589991794022887e-07,2.5564529032970932e-05,2.6037946237285214e-05,2.5654703738554663e-05,1.8589991794022887e-07,2.5564529032970932e-05,2.6037946237285214e-05,1.052074829931973,19.202436374113656,-35.28,32.14,0.1436380807307471,0.0006112312927840695,0.14243497912985964,0.14486257288592147,3.306495686398532e-06,1.6770483706421608e-06,1.3426553833524192e-06,6.999013840478001e-06,4.2422237797328397e-07,1.4973828649035803e-07,1.5558893431601246e-07,7.406493309233974e-07,-0.754409929802597,0.0007773793306797154,-0.7552750744945631,-0.7528035033022524,0.1659137735295828,1.4578510602861663,-2.508544921875,2.35443115234375,35.91999999999999,0.010000000000001563,35.91,35.93,0.13605442176870747,-0.00035087719298251103,0,1,0
0,0.03727658686416177,0.00026253320969681993,0.03715489032241543,0.037842943846904606,0.037276569216796875,0.00026253308540917215,0.037154872732663616,0.03784292593141665,2.564826268815584e-05,1.80636729194284e-07,2.5564529032970932e-05,2.6037946237285214e-05,2.564826268815584e-05,1.80636729194284e-07,2.5564529032970932e-05,2.6037946237285214e-05,-1.0377627118644075,18.976339677000798,-37.25,31.54,0.14252081548472834,0.0008582357706143112,0.141027241004986,0.14388092360164176,6.022690434935933e-07,2.927080537482612e-07,2.816129010995515e-07,1.2242730308951642e-06,1.3394398117429858e-07,6.285195287031658e-08,7.604612031080794e-08,2.7666268598162255e-07,-0.7557395957841898,0.00045678544184050133,-0.7568364396031808,-0.7552980353887744,0.13282387783154662,1.3638743819103814,-2.47344970703125,2.166748046875,35.918421052631565,0.009874559494366657,35.91,35.93,0.16271186440677965,0.0015438596491230484,0,1,0
0,0.03715953933271596,5.6366254318882545e-05,0.03715489032241543,0.037842943846904606,0.0371595217407634,5.6366227634147394e-05,0.037154872732663616,0.03784292593141665,2.5567727797865036e-05,3.8782963225316755e-08,2.5564529032970932e-05,2.6037946237285214e-05,2.5567727797865036e-05,3.8782963225316755e-08,2.5564529032970932e-05,2.6037946237285214e-05,1.1590508474576267,20.23120896160835,-38.57,44.51,0.14172097637403322,0.0009091843404271195,0.14003160494000436,0.1435049979284473,0.00169750264357443,0.002184360675759294,2.813641406997418e-07,0.006965158369534912,0.004709997001385007,0.011252068787034797,2.082225112287963e-07,0.046272415203726935,-0.761473389838851,0.00332563492378242,-0.7679243018187754,-0.7571035256944108,-0.1909786819708928,1.190859131859634,-2.13470458984375,2.19879150390625,35.912222222222205,0.011331154474650858,35.89,35.93,0.13559322033898305,-0.0018163054695562928,0,1,0
0,0.037192335412183565,0.0004997990282628505,0.034402676224458736,0.039219050895882956,0.03719231780470462,0.0004997987916495601,0.0344026599376515,0.03921903232892271,2.5590293234566322e-05,3.4388815732737895e-07,2.367086021571383e-05,2.6984780645913764e-05,2.5590293234566322e-05,3.4388815732737895e-07,2.367086021571383e-05,2.6984780645913764e-05,-1.0997966101694914,18.63218864003783,-34.89,30.89,0.14094514469324038,0.0004902809467046313,0.14023093665332406,0.14227581293532762,0.01750809960716587,0.007382850337017525,0.00762961317295261,0.03434940641818043,0.02648852139861178,0.047868509137654974,1.681649865359347e-06,0.184590713191306,-0.7798423312083909,0.0068309796162730925,-0.7911746631379806,-0.7689756434013575,0.3182872649162046,1.3443635676165693,-2.093505859375,2.39715576171875,35.89842105263157,0.009874559494363147,35.89,35.91,0.16271186440677965,0.00014035087719295453,0,1,0
0,0.0360034538120457,0.0019463794135667922,0.031650462126502035,0.043347372042818,0.03600343676740347,0.001946378492117943,0.03165044714263938,0.04334735152144089,2.4772279833914375e-05,1.339211947485853e-06,2.177719139845672e-05,2.9825283871799426e-05,2.4772279833914375e-05,1.339211947485853e-06,2.177719139845672e-05,2.9825283871799426e-05,-1.3388775510204076,27.065218079529473,-70.78,61.11,0.13414281185201943,0.006366090173665882,0.1266651408832614,0.14235650589539817,0.01962566510828554,0.009672063097950849,0.0070639831010268295,0.035429639839996516,0.001046645685674465,0.0031349743394134526,4.237504763748845e-08,0.012518678451069964,-0.8010364912782255,0.004724500989775181,-0.8075710296264014,-0.7923994799819073,0.05902463094176489,1.4574245034475029,-2.813720703125,2.31781005859375,35.89444444444443,0.008314794192829326,35.89,35.91,0.08163265306122448,0.0,0,1,0
0,0.04027902524442031,0.0043504404052954184,0.030274355077523685,0.04747569318975305,0.04027900617565037,0.004350438345723546,0.03027434074513332,0.04747567071395907,2.7714099041749275e-05,2.9933330197529253e-06,2.083035698982817e-05,3.2665787097685084e-05,2.7714099041749275e-05,2.9933330197529253e-06,2.083035698982817e-05,3.2665787097685084e-05,-0.707423728813561,57.99915057361731,-124.5,225.36,0.1297692929334876,0.001247046237790217,0.128058044795178,0.13241596801812136,0.012575948329786629,0.0027421625218207978,0.00655688954835653,0.015712098113473048,0.013771798987573499,0.030080583351634556,4.1538725503720286e-07,0.11914204225262826,-0.8088087898415667,0.0004502807896243596,-0.8093188566206756,-0.8079605385255565,0.07073819322908587,1.6223642226679293,-2.984619140625,2.47802734375,35.9011111111111,0.011967032904741914,35.89,35.93,0.2983050847457627,0.0007017543859648974,0,1,0
0,0.030770502516951282,0.002499284431146415,0.023393819832631935,0.042659318518328826,0.030770487949676358,0.0024992832479430018,0.02339380875760302,0.04265929832268786,2.1171732660966307e-05,1.719639833337042e-06,1.6096184946685404e-05,2.935186666748515e-05,2.1171732660966307e-05,1.719639833337042e-06,1.6096184946685404e-05,2.935186666748515e-05,1.6662372881355938,61.13454751121763,-314.16,121.25,0.12976881865944168,0.001693155299609982,0.12742290815149884,0.13351305541356484,0.008807487095108927,0.003788458373598493,0.0033298500717786755,0.015665977378622426,0.0009839943941128766,0.004171777734007601,1.681305245027076e-07,0.01868334814310818,-0.8051814010786229,0.0014534010121822838,-0.8076975614444687,-0.8031478655193174,-0.1261524172042203,1.532936160170267,-2.75726318359375,2.22930908203125,35.90894736842104,0.012093816097974342,35.89,35.93,0.13559322033898305,-0.0018947368421051852,0,1,0
0,0.031487746765980956,0.00036092012920254014,0.030274355077523685,0.032338515650991204,0.03148773185915048,0.00036091995833686285,0.03027434074513332,0.03233850034139241,2.1665234627166176e-05,2.48332131827489e-07,2.083035698982817e-05,2.2250608602771e-05,2.1665234627166176e-05,2.48332131827489e-07,2.083035698982817e-05,2.2250608602771e-05,0.8252203389830511,17.0216681212335,-34.41,27.52,0.12764310790098796,0.001316856520252358,0.12543020594308,0.12943641273095488,0.0012599707060543402,0.0007787274585962433,0.00035776622908949523,0.002951848077738023,1.789606089791603e-07,1.6652183884107932e-07,7.003760441395834e-08,6.49613595096743e-07,-0.8039412952662826,0.0009320371189402324,-0.8058857442566646,-0.8030009162317886,0.038562174580165996,1.120137936375364,-1.90887451171875,2.31781005859375,35.89444444444443,0.008314794192829324,35.89,35.91,0.13559322033898305,-0.0011558307533537434,0,1,0
0,0.03183300693912161,0.0032315717204596953,0.01926549868569689,0.0488518002387314,0.03183299186883916,0.003231570190579133,0.01926548956508484,0.04885177711146513,2.1902791881233978e-05,2.223492206622911e-06,1.3255681720799745e-05,3.3612621506313634e-05,2.1902791881233978e-05,2.223492206622911e-06,1.3255681720799745e-05,3.3612621506313634e-05,7.560544217687074,44.93395466700824,-111.5,184.49,0.12580174825044754,0.001162638077899639,0.12398101241583624,0.12818655077782365,0.0028561484686636385,0.0032151023070158624,0.0001026718525520653,0.007652555602621105,0.00645803400230532,0.01720908310961818,9.771333541776228e-08,0.06842608134503808,-0.8096327011642183,0.0020970455248206714,-0.8130112371988981,-0.8062265652820741,0.09910027555717055,1.4898164224128223,-2.11639404296875,2.64434814453125,35.9036842105263,0.009296590385606412,35.89,35.91,0.13605442176870747,-0.0003157894736841477,0,1,0
