,net_acc_mean,net_acc_std,net_acc_min,net_acc_max,ACC_x_mean,ACC_x_std,ACC_x_min,ACC_x_max,ACC_y_mean,ACC_y_std,ACC_y_min,ACC_y_max,ACC_z_mean,ACC_z_std,ACC_z_min,ACC_z_max,BVP_mean,BVP_std,BVP_min,BVP_max,EDA_mean,EDA_std,EDA_min,EDA_max,EDA_phasic_mean,EDA_phasic_std,EDA_phasic_min,EDA_phasic_max,EDA_smna_mean,EDA_smna_std,EDA_smna_min,EDA_smna_max,EDA_tonic_mean,EDA_tonic_std,EDA_tonic_min,EDA_tonic_max,Resp_mean,Resp_std,Resp_min,Resp_max,TEMP_mean,TEMP_std,TEMP_min,TEMP_max,BVP_peak_freq,TEMP_slope,0,1,2
0,0.039967952691245326,0.008683974175930595,0.013761070489783492,0.06054871015504737,-0.03996793376974233,0.008683970064790741,-0.06054868149026664,-0.013761063975060599,-2.750006467782047e-05,5.975033380954821e-06,-4.166071397965634e-05,-9.468344086285531e-06,-2.750006467782047e-05,5.975033380954821e-06,-4.166071397965634e-05,-9.468344086285531e-06,-6.440677966101696,55.1903790333555,-140.96,192.64,6.472317799278072,0.24194931253315966,6.064202486629097,7.028889572537507,1.4129971143937243,0.05285830055652335,1.331329937200472,1.5130366120043182,1.207469002588099,1.7232928986432956,4.754526017336502e-08,4.874794637080221,1.7711350903734198,0.10372189593720728,1.6080235802782283,1.9434758818650866,1.8512977933868873,9.500788665760039,-13.49029541015625,12.85858154296875,32.645555555555546,0.008314794192829326,32.63,32.65,0.2711864406779661,-0.0004953560371516042,0,1,0
0,0.03864722262890885,0.007194341562552809,0.022705766308142764,0.053668174910155624,-0.03864720433266173,0.007194338156630161,-0.05366814950273634,-0.022705755558849988,-2.6591332563949876e-05,4.950087381580358e-06,-3.6926541936513574e-05,-1.5622767742371126e-05,-2.6591332563949876e-05,4.950087381580358e-06,-3.6926541936513574e-05,-1.5622767742371126e-05,7.3949491525423765,58.919313123081466,-222.82,174.72,6.660006168753928,0.3357272638843627,6.267206913688221,7.22045867990251,1.7879110149736404,0.22500519004607591,1.5365757933690327,2.1592856305596695,1.5484775922921035,1.7766661806886856,1.156001232516246e-06,4.877759967308599,1.5103150734268083,0.03520795498766728,1.4784613148659176,1.5919256160992958,-6.945115460947193,10.648462920955394,-16.37725830078125,12.80059814453125,32.625789473684215,0.015326547135327436,32.61,32.65,0.3525423728813559,-0.001754385964912181,0,1,0
0,0.03940159570850248,0.007291541917318062,0.007568588769380921,0.0460995861407747,-0.039401577055122476,0.007291538465379145,-0.046099564316453005,-0.00756858518628333,-2.711038112869104e-05,5.016966364934881e-06,-3.1718952689056526e-05,-5.2075892474570424e-06,-2.711038112869104e-05,5.016966364934881e-06,-3.1718952689056526e-05,-5.2075892474570424e-06,-4.176326530612248,53.61229969272309,-163.71,132.66,6.489502886549585,0.3236047928524369,6.083007271962755,7.081083072209371,1.5926389912946575,0.23900195493155818,1.35468830483569,2.073426033667099,0.8496559556200476,1.3230361565295647,3.8385586265121674e-08,4.48699675873371,1.6040619079319702,0.0763352098134215,1.4988802561101884,1.7445663316063609,3.3927164953340667,2.632932930678339,-4.39910888671875,7.14569091796875,32.635555555555555,0.008958064164774383,32.63,32.65,0.10884353741496598,2.063983488131684e-05,0,1,0
0,0.03923309280454599,0.0074988963571793014,0.015137177538761842,0.05022790728770975,-0.0392330742309381,0.0074988928070752825,-0.050227883508971186,-0.01513717037256666,-2.699444222151203e-05,5.159637183014236e-06,-3.455945591494219e-05,-1.0415178494914085e-05,-2.699444222151203e-05,5.159637183014236e-06,-3.455945591494219e-05,-1.0415178494914085e-05,0.9285084745762732,33.73162609675502,-60.47,114.48,6.328234196094458,0.08353234608578024,6.166192196849455,6.497977249426236,1.1331683560507173,0.15140931856668643,0.8913886279588068,1.3441283839092848,0.6375874332382435,0.7633230211505456,1.345284594833629e-07,2.5350740138056196,1.9643059534839284,0.12360738905769923,1.764960244343355,2.1683576129881064,0.3197894794473577,3.8269003983624374,-6.26068115234375,5.14678955078125,32.64789473684209,0.010041465278071114,32.63,32.66,0.08135593220338982,0.0008771929824559658,0,1,0
0,0.030423123407142955,0.007883877146801365,0.013761070489783492,0.05298012138566645,-0.030423109004323177,0.00788387341444094,-0.05298009630398331,-0.013761063975060599,-2.0932717466436653e-05,5.424524321370061e-06,-3.64531247321993e-05,-9.468344086285531e-06,-2.0932717466436653e-05,5.424524321370061e-06,-3.64531247321993e-05,-9.468344086285531e-06,1.8082033898305079,34.83852801711506,-99.32,52.91,6.286251413171916,0.10889855261280018,5.949066829075888,6.398132271831261,0.7004941245300648,0.14885335389578006,0.38845755279400646,0.8723781035359959,0.2768941691183445,0.5388562427410531,3.9924017869452655e-08,1.892360682411958,2.370910878961597,0.1069429866676042,2.190733046738261,2.540212444035884,1.8873209395543262,2.5660098020636184,-3.52630615234375,6.66046142578125,32.638888888888886,0.009938079899997086,32.63,32.65,0.18983050847457628,-0.0009907120743032085,0,1,0
0,0.03153344622097668,0.0007059541553108833,0.030274355077523685,0.033026569175480386,-0.03153343129251137,0.0007059538211002791,-0.03302655354014544,-0.03027434074513332,-2.1696678268471316e-05,4.857337847799719e-07,-2.2724025807085277e-05,-2.083035698982817e-05,-2.1696678268471316e-05,4.857337847799719e-07,-2.2724025807085277e-05,-2.083035698982817e-05,0.036700680272109064,13.505997193947756,-38.44,21.49,6.1118630145137836,0.035378665613843244,5.973090663541949,6.138004474949429,0.2770992588320236,0.06880277503805848,0.16617993988452032,0.370839152567384,0.1469226933631906,0.3274984656205716,6.496647673159828e-07,1.3886665832934426,2.690130940196676,0.07463018201999815,2.558269359947446,2.8013403793212226,-1.7914575619378101,3.1907358937890833,-6.88934326171875,2.86712646484375,32.63,0.013333333333333051,32.61,32.65,0.13605442176870747,0.0006604747162019631,0,1,0
0,0.032034274296625226,0.00034171850178242206,0.031650462126502035,0.032338515650991204,-0.03203425913105946,0.0003417183400071217,-0.03233850034139241,-0.03165044714263938,-2.2041274464808914e-05,2.351203969144769e-07,-2.2250608602771e-05,-2.177719139845672e-05,-2.2041274464808914e-05,2.351203969144769e-07,-2.2250608602771e-05,-2.177719139845672e-05,-1.2340677966101705,11.94855269849131,-27.86,14.41,6.104036702298327,0.003850720129851757,6.09654139887681,6.111773751892632,0.08903912478641712,0.03206180226822615,0.04533110729159835,0.15450185422675453,0.026805675303688003,0.03457834581613408,2.5050507989066162e-05,0.10147380590891908,2.8719801531444626,0.0307812794363776,2.811221308103286,2.911737641010959,0.19247798115088982,2.592748885635301,-3.399658203125,5.18951416015625,32.629999999999995,0.012977713690460727,32.61,32.65,0.10847457627118644,0.0011228070175438108,0,1,0
0,0.031975892847544186,0.0003527125405163845,0.031650462126502035,0.033026569175480386,-0.031975877709617184,0.00035271237353632067,-0.03302655354014544,-0.03165044714263938,-2.2001104941037825e-05,2.426848768514406e-07,-2.2724025807085277e-05,-2.177719139845672e-05,-2.2001104941037825e-05,2.426848768514406e-07,-2.2724025807085277e-05,-2.177719139845672e-05,0.1208813559322043,11.99183204657992,-30.24,13.82,6.073289722942499,0.016558713881371943,6.0429631778080655,6.098334791883259,0.023950265454747616,0.010187303186217342,0.010020508698762268,0.0434231426499235,0.003105413756807741,0.0062603789499918565,4.328405971976146e-07,0.021777448041598535,2.9182651915935,0.0022546454565118873,2.9137945347671623,2.9208186834553347,0.564207810257815,1.395035077627522,-2.0263671875,3.03802490234375,32.60111111111112,0.011967032904741914,32.59,32.63,0.10847457627118644,-0.0020227038183691756,0,1,0
0,0.03224958356279189,0.00023082703570901682,0.031650462126502035,0.032338515650991204,-0.03224956829529514,0.0002308269264316062,-0.03233850034139241,-0.03165044714263938,-2.2189418623982122e-05,1.5882120508959818e-07,-2.2250608602771e-05,-2.177719139845672e-05,-2.2189418623982122e-05,1.5882120508959818e-07,-2.2250608602771e-05,-2.177719139845672e-05,-0.13627118644067768,13.82872665906748,-32.25,16.25,6.004701797253022,0.02210808758237214,5.967018080970206,6.038999558103849,0.003701452007858965,0.002383258790584614,0.0009728681444646273,0.008929653006807859,1.7654911746781132e-07,7.721471884987097e-08,1.1639976035121569e-07,3.863895166322795e-07,2.897622374378899,0.010201487100005928,2.8795625533573896,2.9129454358486564,0.39412685422684357,0.8948050284881639,-1.336669921875,2.35137939453125,32.5984210526316,0.016307298299820066,32.57,32.61,0.10847457627118644,-0.0012631578947369649,0,1,0
0,0.032020232387962186,0.00034306221795561947,0.031650462126502035,0.032338515650991204,-0.032020217229044086,0.00034306205554418117,-0.03233850034139241,-0.03165044714263938,-2.2031612889210665e-05,2.3604494468796509e-07,-2.2250608602771e-05,-2.177719139845672e-05,-2.2031612889210665e-05,2.3604494468796509e-07,-2.2250608602771e-05,-2.177719139845672e-05,0.32619047619047686,13.054963522061566,-32.77,16.11,5.932572119389814,0.018462145581644225,5.899817627662353,5.963009317256611,0.002678799948116366,0.002133048756712142,0.0004056716991640265,0.00593695738266431,0.004900407269677734,0.00969507223266306,2.5061886386318344e-07,0.036523086221578585,2.8549833998351017,0.014151857093008658,2.8309262971659948,2.877221324883182,0.11261876108628645,1.3040851342868043,-1.8829345703125,2.7984619140625,32.57888888888889,0.00993807990000062,32.57,32.59,0.10884353741496598,-0.0016511867905059342,0,1,0
0,0.03165511113680265,5.6366254318882016e-05,0.031650462126502035,0.032338515650991204,-0.03165509615073902,5.636622763414673e-05,-0.03233850034139241,-0.03165044714263938,-2.178039016335073e-05,3.878296322531645e-08,-2.2250608602771e-05,-2.177719139845672e-05,-2.178039016335073e-05,3.878296322531645e-08,-2.2250608602771e-05,-2.177719139845672e-05,-0.21091525423728855,14.05973161410326,-33.49,17.13,5.856399373441705,0.0239771160657589,5.813421768255284,5.895271769349253,0.011898486744799533,0.0036957293715821843,0.006245646037307085,0.01702311915239897,0.011313316410379378,0.012946419338046283,4.101718874549576e-07,0.03888619781637215,2.7985421772059333,0.01824442131822769,2.768018129815047,2.8278627481657916,-0.018366394800228752,1.8988521836916696,-2.73590087890625,3.77960205078125,32.56473684210526,0.008806947647728488,32.55,32.57,0.10847457627118644,-0.00010526315789475329,0,1,0
0,0.031144953414632453,0.00030377293013993096,0.03096240860201286,0.031650462126502035,-0.03114493867008616,0.0003037727863287013,-0.03165044714263938,-0.03096239394388635,-2.142937467691965e-05,2.0901183732758307e-07,-2.177719139845672e-05,-2.1303774194142445e-05,-2.142937467691965e-05,2.0901183732758307e-07,-2.177719139845672e-05,-2.1303774194142445e-05,1.0617627118644057,14.072676528985417,-33.58,19.47,5.741361176113744,0.036086097311793755,5.685740872339434,5.807058090530024,0.006454725570915637,0.003458481629313365,0.002342945922193408,0.013654119570402995,0.0003103767589612179,0.0012625090826149858,2.691696869838722e-07,0.005515604808283822,2.7344062170344636,0.018393750042974808,2.7043284577791016,2.7645102106150836,-0.058747994910845876,2.2420127461266035,-3.118896484375,4.06951904296875,32.55444444444444,0.008314794192832283,32.55,32.57,0.10847457627118644,-0.0006604747162023736,0,1,0
0,0.03100424969471831,0.00016443306925816565,0.03096240860201286,0.031650462126502035,-0.03100423501678353,0.0001644329914127766,-0.03165044714263938,-0.03096239394388635,-2.1332563078188526e-05,1.1313864572209035e-07,-2.177719139845672e-05,-2.1303774194142445e-05,-2.1332563078188526e-05,1.1313864572209035e-07,-2.177719139845672e-05,-2.1303774194142445e-05,-0.2672203389830509,13.900071810651957,-34.16,17.1,5.629553373073634,0.03026397830770412,5.57992930331583,5.679596501899365,0.0009032914279707335,0.0005517057720200687,0.0002589328597543976,0.002089558088879023,2.884732579822391e-07,1.255370981592875e-07,1.9432409104850473e-07,6.376446641462308e-07,2.671994012484032,0.017361584470181064,2.643882603670309,2.7008309551494616,0.02961899973093779,2.4732285389435833,-3.76739501953125,4.89959716796875,32.54888888888889,0.0045812284729076,32.53,32.55,0.10847457627118644,-0.0003508771929823863,0,1,0
0,0.03097176987445491,7.970836264601083e-05,0.03096240860201286,0.031650462126502035,-0.03097175521189665,7.970832491072712e-05,-0.03165044714263938,-0.03096239394388635,-2.1310215244541213e-05,5.484356792207156e-08,-2.177719139845672e-05,-2.1303774194142445e-05,-2.1310215244541213e-05,5.484356792207156e-08,-2.177719139845672e-05,-2.1303774194142445e-05,-0.7212244897959189,14.587698894782635,-34.29,18.84,5.52638451896407,0.030591381163233115,5.473765129652921,5.574849008700034,9.298583215266869e-05,6.074393906864294e-05,2.4463188438401753e-05,0.00022853595084908781,4.822600785754633e-07,6.063275213841883e-07,2.1891002742273867e-07,2.8854954164062464e-06,2.6108517255147423,0.018371582718595677,2.580097361321204,2.6406349588047915,-0.2263439089752907,2.298280760478465,-3.45611572265625,4.0435791015625,32.534210526315775,0.00815364914990873,32.53,32.55,0.10884353741496598,-0.0006315789473682954,0,1,0
0,0.03095772796579185,0.00012680982961967572,0.030274355077523685,0.031650462126502035,-0.030957713309881278,0.000126809769585763,-0.03165044714263938,-0.03027434074513332,-2.1300553668942968e-05,8.725186759661877e-08,-2.177719139845672e-05,-2.083035698982817e-05,-2.1300553668942968e-05,8.725186759661877e-08,-2.177719139845672e-05,-2.083035698982817e-05,-0.4990847457627128,15.4534570815879,-37.45,22.56,5.428084327268446,0.024847381438851596,5.386283922927207,5.468511327014757,0.0070442559896494485,0.0060091141613950105,2.215155572087215e-05,0.017576998259057758,0.015438278640876898,0.021587691036308004,9.067415412733482e-06,0.07544888561222524,2.5432036706237593,0.02109650323727458,2.50718284956394,2.57648792258968,-0.11939919590395207,2.063422557530307,-3.30963134765625,3.69720458984375,32.547777777777775,0.014740554623801225,32.53,32.57,0.10847457627118644,-0.0019814241486068277,0,1,0
0,0.030613732829467687,0.0011957540082129358,0.028210194504056162,0.034402676224458736,-0.030613718336410144,0.0011957534421228179,-0.0344026599376515,-0.02821018114887423,-2.106386682709129e-05,8.227419807725498e-07,-2.367086021571383e-05,-1.941010537688534e-05,-2.106386682709129e-05,8.227419807725498e-07,-2.367086021571383e-05,-1.941010537688534e-05,-1.4114237288135592,45.1792234386047,-125.72,124.64,5.374897278199271,0.037486207410805904,5.285843382157568,5.444918356420185,0.06587436983811008,0.03613611184189153,0.019033642437739497,0.1169197977151469,0.07101885456439878,0.13818804247688984,6.326876889062305e-08,0.5113999416436061,2.4522031881013864,0.032883895811362876,2.3941451777200213,2.502448328699355,0.10536089724405824,2.4248404962356758,-3.47137451171875,4.67376708984375,32.55736842105264,0.013314853305972669,32.53,32.57,0.10847457627118644,0.0021754385964913563,0,1,0
0,0.023510835738157293,0.007662417366163246,0.006880535244891746,0.041283211469350475,-0.02351082460773109,0.007662413738645607,-0.041283191925181796,-0.006880531987530299,-1.617669807667084e-05,5.272148283044278e-06,-2.8405032258856593e-05,-4.7341720431427655e-06,-1.617669807667084e-05,5.272148283044278e-06,-2.8405032258856593e-05,-4.7341720431427655e-06,2.287322033898309,53.02409285407898,-98.39,139.16,5.372720206639753,0.060264878645538054,5.273662992114157,5.482788086625557,0.20805950299097845,0.06506747806459924,0.07886372473431161,0.28249045847151183,0.24899297173732127,0.44019131765625724,1.6215388498608263e-07,1.2739791701965446,2.3091775085839785,0.05066363036371036,2.2205925100411696,2.386499979877308,-0.44953964380163086,2.4360169193568795,-3.92303466796875,4.34112548828125,32.57444444444445,0.00831479419283228,32.57,32.59,0.13559322033898305,-0.0006604747162023736,0,1,0
0,0.028804635304125012,0.010489837316022606,0.006880535244891746,0.05298012138566645,-0.02880462166752481,0.010489832349956672,-0.05298009630398331,-0.006880531987530299,-1.9819112077211265e-05,7.2175627027707065e-06,-3.64531247321993e-05,-4.7341720431427655e-06,-1.9819112077211265e-05,7.2175627027707065e-06,-3.64531247321993e-05,-4.7341720431427655e-06,3.1239455782312904,48.78517012257101,-120.45,178.35,5.263172236620267,0.07699777638064371,5.149789153696277,5.3983292556267,0.34513333638999616,0.03858006929867008,0.2783408075099898,0.4263276590416123,0.3377859620500462,0.6106371209216943,8.985525212779066e-08,2.0391458009036674,2.1052155283287384,0.06266051628696356,2.005181374068968,2.2086877893027412,1.089185520673804,2.333630131452081,-2.70843505859375,5.5328369140625,32.57333333333335,0.025166114784237054,32.53,32.59,0.19047619047619047,0.0026212590299278184,0,1,0
0,0.03405864946221416,0.006219541823109254,0.019953552210186066,0.04197126499383966,-0.03405863333827498,0.006219538878673241,-0.04197124512393483,-0.01995354276383787,-2.3434151613556666e-05,4.2793736202399565e-06,-2.8878449463170872e-05,-1.372909892511402e-05,-2.3434151613556666e-05,4.2793736202399565e-06,-2.8878449463170872e-05,-1.372909892511402e-05,-4.48745762711864,31.929644118535677,-74.34,46.52,5.043960381165021,0.07715666612334675,4.935336517562293,5.213635025472787,0.38945045709001685,0.03458352386189166,0.3287704237004308,0.4487598180388551,0.2524321650458533,0.5055993770488336,7.454825556862943e-08,1.7593875164722625,1.9260119918979992,0.034529561313842674,1.8860396275496325,1.9946417839376611,-0.9026667024598228,1.721021986464985,-3.11431884765625,2.5787353515625,32.59631578947369,0.025175285774951428,32.55,32.63,0.16271186440677965,0.003719298245614068,0,1,0
0,0.022668321218374636,0.005864626122916251,0.006880535244891746,0.03371462269996956,-0.022668310486809003,0.005864623346503318,-0.03371460673889847,-0.006880531987530299,-1.5597003540775783e-05,4.035172853043308e-06,-2.3197443011399553e-05,-4.7341720431427655e-06,-1.5597003540775783e-05,4.035172853043308e-06,-2.3197443011399553e-05,-4.7341720431427655e-06,7.706169491525423,77.80558348600947,-283.57,149.34,4.732158213859015,0.09755290141210401,4.6088151687764665,4.899792699842851,0.21052550177249385,0.08099068723968472,0.11357492076838532,0.359996206206942,0.08348886676430979,0.1957852851426761,6.509499250739736e-08,0.6901824978054689,1.918520490849365,0.02721405321125763,1.8861195844635241,1.9714170448967827,0.3455691998914055,1.0260117529759407,-1.89666748046875,2.68402099609375,32.61000000000001,0.01333333333333305,32.59,32.63,0.13559322033898305,-0.0006604747162025496,0,1,0
0,0.025434735354596442,0.010026641347461437,0.009632749342848445,0.04953985376322058,-0.025434723313363695,0.01002663660068029,-0.04953983031021816,-0.00963274478254242,-1.750044273515814e-05,6.898859385832284e-06,-3.408603871062791e-05,-6.627840860399872e-06,-1.750044273515814e-05,6.898859385832284e-06,-3.408603871062791e-05,-6.627840860399872e-06,-4.666779661016949,37.78929114923457,-126.74,54.85,4.7895516924113135,0.05781919765761746,4.711557022824389,4.904186405745691,0.1072671148173942,0.015906090469106637,0.08847792688857675,0.14536797990965733,0.06413636602222063,0.11953308087683151,3.661230092433243e-07,0.43981253045143,2.0555806926106093,0.045271754879897035,1.9796349795586536,2.125830370573776,1.5293968522519095,2.4302976574032558,-2.52532958984375,5.93414306640625,32.60578947368422,0.00815364914990873,32.59,32.61,0.08135593220338982,0.0002105263157894318,0,1,0
0,0.02407719272090008,0.0021377342389968766,0.01788939163671854,0.029586301553034506,-0.024077181322350906,0.002137733226957426,-0.029586287546380288,-0.01788938316757878,-1.6566381625800273e-05,1.4708741848886948e-06,-2.035693978551389e-05,-1.230884731217119e-05,-1.6566381625800273e-05,1.4708741848886948e-06,-2.035693978551389e-05,-1.230884731217119e-05,-2.0852380952380956,23.50809625574051,-66.4,38.21,4.879109260182194,0.026229396866941857,4.84908633410571,4.92833632382548,0.05681659290458853,0.025686487055478775,0.029152110431703397,0.10227523498637993,0.012761938825925634,0.021939957194961286,1.0927880000899393e-07,0.062004491165479236,2.16023311506124,0.012382088175742576,2.1319262529476672,2.1713938901201204,-1.120649673802681,2.9353785997116564,-5.68695068359375,3.73382568359375,32.613333333333344,0.0074535599250004645,32.61,32.63,0.08163265306122448,0.000928792569659588,0,1,0
0,0.02980161081920118,0.008649742284581041,0.012384963440805145,0.0460995861407747,-0.02980159671061594,0.008649738189647139,-0.046099564316453005,-0.01238495757755454,-2.0505083944687076e-05,5.9514800297629615e-06,-3.1718952689056526e-05,-8.521509677656977e-06,-2.0505083944687076e-05,5.9514800297629615e-06,-3.1718952689056526e-05,-8.521509677656977e-06,0.03854237288135879,43.34545785729313,-139.85,123.8,4.874957680283496,0.03435869093687324,4.816182989961233,4.918234749659812,0.08662375131497187,0.04450788818759546,0.023671605672136907,0.15304407105673407,0.1396409750623317,0.26295435511791176,5.913391386558331e-07,0.8744274708549187,2.127390986152632,0.03096954765017434,2.067087018310438,2.167178822227724,0.0570462891836616,2.2472822716959517,-3.9215087890625,4.45404052734375,32.61105263157896,0.004465937565389417,32.61,32.63,0.05423728813559322,-0.00031578947368425986,0,1,0
0,0.031478448745379736,0.011375788121682816,0.00894469581835927,0.05504428195913397,-0.031478433842951105,0.01137578273619283,-0.055044255900242395,-0.00894469158378939,-2.1658837097378155e-05,7.82714369995697e-06,-3.7873376345142124e-05,-6.154423656085595e-06,-2.1658837097378155e-05,7.82714369995697e-06,-3.7873376345142124e-05,-6.154423656085595e-06,1.273593220338982,67.1882594614688,-214.23,127.16,4.801341425754188,0.09717104262286996,4.591183103575589,4.909276974916238,0.2104229728980166,0.03300790937986945,0.17024483674839613,0.26614749171140023,0.20085373395873912,0.468690542971147,3.617476007633513e-08,1.5994046831425095,1.960506377395171,0.06313423730471558,1.8531672359191633,2.057759099892825,0.08039057273284789,2.088199539014655,-3.66058349609375,4.16717529296875,32.63666666666666,0.013333333333332259,32.61,32.65,0.16271186440677965,0.000990712074303443,0,1,0
0,0.03317634953455286,0.0020626263254253058,0.028898248028545334,0.041283211469350475,-0.0331763338283094,0.0020626253489432135,-0.041283191925181796,-0.02889823434762726,-2.2827082613466663e-05,1.41919596916946e-06,-2.8405032258856593e-05,-1.9883522581199616e-05,-2.2827082613466663e-05,1.41919596916946e-06,-2.8405032258856593e-05,-1.9883522581199616e-05,-2.026088435374148,68.59974379183282,-196.87,345.41,4.646421022202163,0.02923379952525105,4.5977155435129875,4.726683496916338,0.33430165002726964,0.04979581392734095,0.2522634398970817,0.39813783112238904,0.3180629407845652,0.3816955096696281,2.0289218927160846e-07,1.2801574900790698,1.7404386168806758,0.05652828464622622,1.6576700180350823,1.8400458718207875,-1.1329466296780495,6.054126478598738,-9.98382568359375,6.90460205078125,32.636666666666656,0.016329931618553853,32.61,32.65,0.24489795918367346,0.0028070175438595015,0,1,0
0,0.02621624347390385,0.008525208071678362,0.010320802867337619,0.04541153261628553,-0.026216231062691983,0.008525204035701053,-0.045411511117699976,-0.010320797981295449,-1.8038161641933775e-05,5.86579390678635e-06,-3.124553548474225e-05,-7.101258064714148e-06,-1.8038161641933775e-05,5.86579390678635e-06,-3.124553548474225e-05,-7.101258064714148e-06,0.7081016949152544,33.40420177249345,-81.62,64.53,4.631202351507007,0.040141311324624694,4.584713165566891,4.6944633562574225,0.42319255146338336,0.02524833124351471,0.368936517856919,0.466046792190699,0.2685105230799503,0.28731277176336056,6.6041975443909e-08,0.8040416030822737,1.6408818563094187,0.01275127790291646,1.6273157139600596,1.671338427647004,-0.08811619382342394,2.9878374682713424,-4.8553466796875,4.69818115234375,32.65894736842104,0.011650496642725994,32.65,32.68,0.10847457627118644,0.0011403508771930797,0,1,0
0,0.033449629112835215,0.012007157046437449,0.0013761070489783493,0.04747569318975305,-0.03338452716382101,0.012186946224323036,-0.04747567071395907,0.0034402659937651497,-2.2970330703924462e-05,8.385267332676629e-06,-3.2665787097685084e-05,2.3670860215713828e-06,-2.2970330703924462e-05,8.385267332676629e-06,-3.2665787097685084e-05,2.3670860215713828e-06,-1.7966101694915277,68.97277460451073,-240.18,140.5,4.60537620147232,0.0942410647676905,4.430808425414014,4.789490414451333,0.2992032067268766,0.0634807572574303,0.18780655699494964,0.3929277667361719,0.17320620531421455,0.3973982567552921,5.8769527910840225e-08,1.4292529004953964,1.7540459584951351,0.0462043913180894,1.6790093620894933,1.8268662631831387,1.4008482087668224,3.1762087045614686,-3.948974609375,6.45599365234375,32.66277777777776,0.009891385452647922,32.65,32.68,0.10847457627118644,-0.0011248710010320028,0,1,0
0,0.04074493830393381,0.0005045109249819254,0.03990710442037213,0.043347372042818,-0.0407449190145928,0.0005045106861379482,-0.04334735152144089,-0.03990708552767574,-2.8034671860923595e-05,3.4713019140229863e-07,-2.9825283871799426e-05,-2.745819785022804e-05,-2.8034671860923595e-05,3.4713019140229863e-07,-2.9825283871799426e-05,-2.745819785022804e-05,2.5975593220338973,25.60607874352029,-45.38,58.55,4.439473778041227,0.05358514520143079,4.368414605419806,4.536161810036954,0.09922720366744105,0.03317306765445,0.07061875250291809,0.17555590372387092,0.05342165310015473,0.07523093049836631,3.0787673077625755e-07,0.2212410135508518,1.8500715154448146,0.013016013476370682,1.81983380428716,1.864402828341653,0.08235249862481583,1.6239175004410122,-2.16522216796875,3.12347412109375,32.691052631578934,0.017440043711348968,32.65,32.71,0.10847457627118644,0.0002631578947368521,0,1,0
0,0.04062324176218743,0.00021047255090982165,0.03990710442037213,0.04197126499383966,-0.04062322253045958,0.0002104724512685663,-0.04197124512393483,-0.03990708552767574,-2.7950938205738764e-05,1.4481624334472822e-07,-2.8878449463170872e-05,-2.745819785022804e-05,-2.7950938205738764e-05,1.4481624334472822e-07,-2.8878449463170872e-05,-2.745819785022804e-05,0.7198299319727887,18.245545453141204,-44.71,43.92,4.3329044522720395,0.01926181817611678,4.306778836626058,4.367782149889196,0.17988672525165292,0.06534504993978761,0.09218692220696029,0.3221634855627813,0.2686270862843351,0.30118949321540184,3.276847037092523e-05,1.105230022978712,1.7047410176951803,0.06924431080950182,1.5873251238570865,1.8104856134074452,-0.634950680413258,2.1359455265425655,-4.010009765625,3.07769775390625,32.67777777777778,0.019309052441093662,32.66,32.71,0.10884353741496598,-0.0005779153766770475,0,1,0
0,0.0380567983207324,0.0019293560783285608,0.032338515650991204,0.04197126499383966,-0.038056780304002,0.0019293551649388486,-0.04197124512393483,-0.03233850034139241,-2.618508942240991e-05,1.327498992766853e-06,-2.8878449463170872e-05,-2.2250608602771e-05,-2.618508942240991e-05,1.327498992766853e-06,-2.8878449463170872e-05,-2.2250608602771e-05,-1.8167457627118653,50.21510770964546,-109.07,120.1,4.243411282097854,0.12001103697843586,3.9387786690660986,4.3706602674117185,0.3570878461182391,0.07259698773116725,0.2263199518006782,0.43926479995652673,0.29276459055561227,0.6990481116291694,2.7139268610198997e-08,3.087906494450154,1.474302144021073,0.0517036389327528,1.409808565173386,1.5733427410744691,0.48169876742303813,1.2549220399904113,-1.678466796875,3.01666259765625,32.686315789473674,0.012230473724865996,32.68,32.71,0.10847457627118644,-0.0015789473684211124,0,1,0
0,0.037842943846904696,8.025619289152616e-05,0.03715489032241543,0.03853099737139378,-0.03784292593141662,8.025615489689087e-05,-0.03853097913016968,-0.037154872732663616,-2.6037946237285173e-05,5.522050409642445e-08,-2.651136344159949e-05,-2.5564529032970932e-05,-2.6037946237285173e-05,5.522050409642445e-08,-2.651136344159949e-05,-2.5564529032970932e-05,0.08684745762711601,22.74686964256956,-51.96,38.52,4.2257838211928185,0.023414465848840993,4.188337238771975,4.263778052810457,0.3909951454211159,0.034595542331505275,0.3254408693345681,0.4344019905503179,0.2418980241943673,0.192488848491314,0.0003201275046098573,0.5623468946103305,1.4283813790390343,0.020748856096012545,1.4070258942676506,1.470970439719228,0.048566315805102005,1.1050196717109952,-1.885986328125,2.239990234375,32.65888888888887,0.006573421981221755,32.65,32.68,0.10847457627118644,-0.0008462332301341152,0,1,0
0,0.03744312896105269,0.00036665338664899184,0.036466836797926255,0.03853099737139378,-0.03744311123484405,0.000366653213069096,-0.03853097913016968,-0.03646681953391059,-2.576285245639996e-05,2.522769160852679e-07,-2.651136344159949e-05,-2.5091111828656657e-05,-2.576285245639996e-05,2.522769160852679e-07,-2.651136344159949e-05,-2.5091111828656657e-05,0.7250508474576246,27.381228357276935,-59.45,41.72,4.096026596683117,0.07241897031502352,3.9967306201490533,4.182578318782364,0.20037212371378613,0.07674059538028823,0.09525867153783532,0.31540752583116555,0.04940730476298189,0.11988066803644311,5.1490294694644945e-08,0.5101013537499428,1.5410422754080302,0.03753453882872267,1.478137606004937,1.5987340669902248,-0.20582510971556972,2.378774200100879,-4.08172607421875,3.509521484375,32.664444444444435,0.00831479419283228,32.66,32.68,0.10847457627118644,0.0006604747162023736,0,1,0
0,0.0372016966846255,0.0001732467804718505,0.03715489032241543,0.037842943846904606,-0.03720167907271495,0.00017324669845390417,-0.03784292593141665,-0.037154872732663616,-2.5596734284965185e-05,1.1920294504461035e-07,-2.6037946237285214e-05,-2.5564529032970932e-05,-2.5596734284965185e-05,1.1920294504461035e-07,-2.6037946237285214e-05,-2.5564529032970932e-05,-0.05833333333333331,17.106851979168706,-46.24,26.51,3.9774826926758657,0.023549437474678574,3.940691829582962,4.016649362437314,0.04052365710311678,0.023766949696060715,0.011630363880469823,0.08826234411325366,0.001810278550767382,0.005274643712300294,1.9032523790318834e-07,0.01779044773636307,1.6284261776873503,0.01074582808529955,1.6038314141411654,1.6381775599748987,0.1686600086300872,1.3810952697441659,-2.30560302734375,2.79693603515625,32.656842105263145,0.012162336850833424,32.65,32.68,0.10884353741496598,-0.0015263157894737046,0,1,0
0,0.03714084841375233,0.0006640897491121703,0.035090729748947905,0.04197126499383966,-0.037140830830648314,0.0006640894347208811,-0.04197124512393483,-0.03509071313640453,-2.5554867457372734e-05,4.569288598177938e-07,-2.8878449463170872e-05,-2.4144277420028106e-05,-2.5554867457372734e-05,4.569288598177938e-07,-2.8878449463170872e-05,-2.4144277420028106e-05,0.25874576271186467,14.869250153313184,-36.07,19.28,3.914751069651477,0.015834464985015357,3.897380220437122,3.9417753742649833,0.011152072747716311,0.005251195244162469,0.006861063024571521,0.0246300830032145,0.016286121207057518,0.02789529721287185,3.411501967337527e-06,0.09542856734017807,1.6191655325175862,0.012770725985721067,1.5954359471422856,1.6362736243948142,-0.008694148381748371,1.9216798626626574,-3.16619873046875,3.62091064453125,32.645555555555546,0.008314794192829326,32.63,32.65,0.10847457627118644,-0.0011558307533537434,0,1,0
0,0.03687130069407876,0.0032656145478459388,0.028898248028545334,0.05504428195913397,-0.036871283238582936,0.00326561300184892,-0.055044255900242395,-0.02889823434762726,-2.536940437443598e-05,2.246915471811639e-06,-3.7873376345142124e-05,-1.9883522581199616e-05,-2.536940437443598e-05,2.246915471811639e-06,-3.7873376345142124e-05,-1.9883522581199616e-05,0.3471186440677969,22.852880176812597,-64.06,39.19,3.838214566119622,0.05006816275062976,3.753532763230728,3.9001979634886403,0.025687849214491163,0.009267293763485401,0.010318000724756226,0.03883127433703429,0.011275328889313825,0.04346142474437813,1.1685934103722317e-07,0.19474333089643303,1.5584035960455254,0.020902532239987642,1.523491344209214,1.591974905934823,-0.02165716280120774,3.724723482991169,-5.01861572265625,6.21490478515625,32.6478947368421,0.010041465278071114,32.63,32.66,0.10847457627118644,0.0002456140350876704,0,1,0
0,0.03788038893667281,0.00015608360337340037,0.037842943846904606,0.03853099737139378,-0.0378803710034576,0.00015608352948078935,-0.03853097913016968,-0.03784292593141665,-2.6063710438880513e-05,1.073937717319198e-07,-2.651136344159949e-05,-2.6037946237285214e-05,-2.6063710438880513e-05,1.073937717319198e-07,-2.651136344159949e-05,-2.6037946237285214e-05,-1.5995932203389827,13.190541597339383,-42.82,15.04,3.681450578240506,0.03666745302278197,3.6232698915991124,3.7438014078212687,0.003881172282338964,0.0024078279043002835,0.001099044771961633,0.009129542989586018,7.6046433566648e-07,1.4582289394692727e-06,1.6585089446241597e-07,6.511813666124772e-06,1.4860867382845326,0.020204896528361146,1.4534735957259977,1.5195131671340816,-0.08623133229425226,1.567908053856882,-2.630615234375,3.02276611328125,32.66888888888888,0.016292086998462216,32.65,32.71,0.10847457627118644,0.0012177502579979432,0,1,0
0,0.03784762448312571,5.6556342644193745e-05,0.037842943846904606,0.03853099737139378,-0.037847606565421736,5.655631586946712e-05,-0.03853097913016968,-0.03784292593141665,-2.6041166762484586e-05,3.891375404367352e-08,-2.651136344159949e-05,-2.6037946237285214e-05,-2.6041166762484586e-05,3.891375404367352e-08,-2.651136344159949e-05,-2.6037946237285214e-05,0.8098979591836742,12.125005771362508,-28.42,20.13,3.5763904497795087,0.0269395839170596,3.531317749452063,3.618115800397364,0.003501219224469313,0.0009653241744478296,0.0010063766409370769,0.004285343499159758,0.00332851798065198,0.008056890065393294,4.301339164874962e-06,0.03492843945997562,1.421234841203666,0.016799805468111727,1.3947420290596946,1.4498183411487686,0.3859351941432905,1.6013802256316674,-2.0111083984375,3.28216552734375,32.71777777777778,0.009749960430433753,32.71,32.73,0.10884353741496598,0.001589267285861397,0,1,0
0,0.0378475928572053,5.636625431888254e-05,0.037842943846904606,0.03853099737139378,-0.03784757493951629,5.63662276341468e-05,-0.03853097913016968,-0.03784292593141665,-2.604114500217919e-05,3.8782963225316106e-08,-2.651136344159949e-05,-2.6037946237285214e-05,-2.604114500217919e-05,3.8782963225316106e-08,-2.651136344159949e-05,-2.6037946237285214e-05,0.36325423728813666,11.09200702841529,-26.05,16.61,3.483575195685287,0.026860205274075115,3.441922848444318,3.526225124295567,0.0011073442290157546,0.0006887395697166902,0.0003334548014536835,0.002597719956019603,0.0005144735075538348,0.0021765846956056595,1.5303739237318426e-07,0.009748930585151439,1.3678220360201905,0.01428734776391527,1.3448224611753277,1.3918839935666922,0.08657848272962547,1.6931503672350623,-2.459716796875,3.29742431640625,32.736315789473686,0.009296590385609713,32.73,32.75,0.10847457627118644,0.001368421052631793,0,1,0
0,0.03786166639178875,0.00011194453674899942,0.037842943846904606,0.03853099737139378,-0.03786164846743711,0.0001119444837525673,-0.03853097913016968,-0.03784292593141665,-2.605082833808284e-05,7.702376012871042e-08,-2.651136344159949e-05,-2.6037946237285214e-05,-2.605082833808284e-05,7.702376012871042e-08,-2.651136344159949e-05,-2.6037946237285214e-05,-0.004576271186440935,10.932423789132931,-24.98,14.28,3.407528590849904,0.023014598151350596,3.36983360773217,3.4420310405103076,0.0007021446227991729,0.00026143845953793593,0.0002849501480534263,0.0010691287303922822,3.5068887262680746e-07,3.901603687662693e-07,1.808119843363376e-07,1.8696141137232447e-06,1.321500240349463,0.012757662278991283,1.3005277908124664,1.342360215316269,0.1316360535179278,1.6694462390194784,-2.31170654296875,2.98919677734375,32.75888888888889,0.00993807990000062,32.75,32.77,0.10847457627118644,0.0003302373581011868,0,1,0
0,0.03794057306321734,0.00024008886375509865,0.037842943846904606,0.03853099737139378,-0.037940555101509954,0.00024008875009298006,-0.03853097913016968,-0.03784292593141665,-2.6105120300059514e-05,1.6519383248609153e-07,-2.651136344159949e-05,-2.6037946237285214e-05,-2.6105120300059514e-05,1.6519383248609153e-07,-2.651136344159949e-05,-2.6037946237285214e-05,0.06803389830508519,11.688519916112535,-25.54,15.12,3.330008308217401,0.022512544271368163,3.2945981402391826,3.3663625134880175,0.00010315271452423007,6.708478705447561e-05,2.7131356089857818e-05,0.0002521633127372975,3.1000155757065216e-07,1.1372649816174274e-07,2.0289319615195145e-07,5.854109536688763e-07,1.275688487861964,0.013582444097999073,1.2534366033339226,1.298042492805593,0.45807178203876203,1.777339348393981,-2.386474609375,3.033447265625,32.781578947368416,0.009874559494363151,32.77,32.79,0.10847457627118644,-0.00014035087719295453,0,1,0
0,0.038081656294176425,0.0003275107757040934,0.037842943846904606,0.03853099737139378,-0.03808163826567786,0.000327510620654967,-0.03853097913016968,-0.03784292593141665,-2.620219302245548e-05,2.2534473016724002e-07,-2.651136344159949e-05,-2.6037946237285214e-05,-2.620219302245548e-05,2.2534473016724002e-07,-2.651136344159949e-05,-2.6037946237285214e-05,-0.8270408163265305,11.770211091326633,-25.36,14.22,3.256803000559785,0.01944877825697374,3.225345549353871,3.2891703204498137,6.789313073050067e-05,5.226120288317691e-05,1.222840475591315e-05,0.0001379653063201431,8.204259222156019e-05,0.00029198919531180453,4.5430481280086046e-07,0.0012843102635227116,1.23057429605357,0.012347953073713072,1.2105441575780769,1.2509893501877583,0.2305317161692579,1.8342942388386858,-2.44293212890625,3.52325439453125,32.7988888888889,0.009938079900000618,32.79,32.81,0.10884353741496598,0.0,0,1,0
0,0.03820335283592281,0.00034363648785662134,0.037842943846904606,0.03853099737139378,-0.038203334749811045,0.00034363632517331105,-0.03853097913016968,-0.03784292593141665,-2.6285926677640327e-05,2.3644007274323257e-07,-2.651136344159949e-05,-2.6037946237285214e-05,-2.6285926677640327e-05,2.3644007274323257e-07,-2.651136344159949e-05,-2.6037946237285214e-05,0.3704745762711873,11.651172478071055,-28.41,15.45,3.1860223161901375,0.021376639047844474,3.1522004203966087,3.2216091971147507,4.30933695068599e-05,2.657280011066806e-05,1.1848812778572567e-05,9.922983922906253e-05,2.1783332154267547e-07,4.513834698001647e-08,1.7929134460902777e-07,3.6259714601542294e-07,1.1878964080130632,0.01230334421345776,1.1677832372076542,1.2082425693317564,-0.20676463768440795,2.0420311334105055,-2.88543701171875,3.7994384765625,32.80684210526315,0.007292845505554306,32.79,32.81,0.10847457627118644,0.0008421052631580263,0,1,0
0,0.03837758003147396,0.00028639563764404005,0.037842943846904606,0.03853099737139378,-0.038377561862880084,0.0002863955020595137,-0.03853097913016968,-0.03784292593141665,-2.6405804200097027e-05,1.9705534130052814e-07,-2.651136344159949e-05,-2.6037946237285214e-05,-2.6405804200097027e-05,1.9705534130052814e-07,-2.651136344159949e-05,-2.6037946237285214e-05,-0.13132203389830585,12.177528148665825,-27.84,15.46,3.1179469656375565,0.018668096341981695,3.085354050989533,3.1489261066918073,4.61685088124998e-06,2.6753093720599777e-06,1.5434807144493256e-06,1.0490666069430398e-05,2.511901339843796e-07,3.3897247732451e-08,2.0976777897525499e-07,3.1105004818737336e-07,1.1467401705141116,0.011506454210528962,1.1278439301446137,1.1655684493486358,0.178451135666741,1.9173496536878065,-2.89459228515625,3.84674072265625,32.82555555555555,0.008314794192829328,32.81,32.83,0.10847457627118644,-0.0008255933952526737,0,1,0
0,0.038357813831216295,0.0002986084503396475,0.037842943846904606,0.03853099737139378,-0.03835779567198008,0.0002986083089733701,-0.03853097913016968,-0.03784292593141665,-2.639220400922109e-05,2.054584021633598e-07,-2.651136344159949e-05,-2.6037946237285214e-05,-2.639220400922109e-05,2.054584021633598e-07,-2.651136344159949e-05,-2.6037946237285214e-05,0.4843197278911564,12.640694301674511,-29.13,16.88,3.051882063335352,0.01818471235117198,3.023171088731478,3.080713271485358,0.0001234793141366563,0.00026863637062759854,8.318629124140656e-07,0.0009017219902745001,0.0005900123235744265,0.002420640296820304,3.037770600828955e-07,0.010570554089334551,1.1064488159266863,0.011716628204067955,1.0872220514532995,1.125604344831311,-0.13367106246001667,1.9169735040426459,-2.90679931640625,3.38897705078125,32.827777777777776,0.010304020550550606,32.81,32.84,0.10884353741496598,0.0014035087719299559,0,1,0
0,0.038025488659524216,0.0018724417044944216,0.03096240860201286,0.04541153261628553,-0.03802547065761642,0.0018724408180489343,-0.045411511117699976,-0.03096239394388635,-2.6163546720062458e-05,1.2883388943343092e-06,-3.124553548474225e-05,-2.1303774194142445e-05,-2.6163546720062458e-05,1.2883388943343092e-06,-3.124553548474225e-05,-2.1303774194142445e-05,0.9269152542372885,19.117693401475456,-42.99,72.54,2.9907651704400116,0.015398073092092835,2.960060467254106,3.01834563332996,0.00391046235489303,0.003246569524934839,0.0009680435026225264,0.009343903252272969,0.005683536500630456,0.01717901920189524,3.622350228937865e-07,0.07357399099369452,1.064566429996519,0.012394675531089236,1.0442327570371963,1.0849541814288706,2.62551508825411,3.9333790129977753,-2.703857421875,8.08868408203125,32.833684210526314,0.004823763889429668,32.83,32.84,0.10847457627118644,0.0001754385964913178,0,1,0
0,0.03650402888033102,0.0007828027785897782,0.033026569175480386,0.039219050895882956,-0.03650401159870807,0.0007828024079977378,-0.03921903232892271,-0.03302655354014544,-2.511670194780878e-05,5.386097008144177e-07,-2.6984780645913764e-05,-2.2724025807085277e-05,-2.511670194780878e-05,5.386097008144177e-07,-2.6984780645913764e-05,-2.2724025807085277e-05,-0.3073220338983041,37.70885468933046,-157.94,80.39,2.9474389488226813,0.03137458840643108,2.8911735851725515,3.0034468454459375,0.02048439207069798,0.007461977000389545,0.008124713446603317,0.0309843929993596,0.015929233506008205,0.06107489739742799,6.996761980904154e-08,0.26706457552044405,1.0226917643397553,0.01187305171802274,1.0030027990690948,1.0419850338948762,-4.144947076857257,6.173976018407959,-12.97607421875,6.37054443359375,32.83166666666667,0.006871842709363794,32.81,32.84,0.13559322033898305,-0.0006914344685243562,0,1,0
0,0.036401307890832006,0.00024518671927626354,0.03577878327343708,0.03715489032241543,-0.036401290657838876,0.0002451866032007342,-0.037154872732663616,-0.03577876633515756,-2.5046024475864824e-05,1.68701426623655e-07,-2.5564529032970932e-05,-2.461769462434238e-05,-2.5046024475864824e-05,1.68701426623655e-07,-2.5564529032970932e-05,-2.461769462434238e-05,-1.6279999999999997,10.942040512457956,-30.74,12.79,2.844323609039344,0.025993584884135137,2.8025928734301573,2.886559387914528,0.003918326918075677,0.002514064161306368,0.0011692298514423326,0.009510097625064875,9.638969269742564e-05,0.0003700292780633951,1.2852306524591128e-07,0.0016609481742603203,0.9774694311999046,0.014522281329624787,0.9527963921923736,1.000597961451487,0.6339539369341753,2.4933432995391818,-3.29742431640625,5.08880615234375,32.80578947368419,0.020082930556144893,32.77,32.83,0.10847457627118644,-0.0010526315789473335,0,1,0
0,0.03643875298060013,0.00013614135557104022,0.03577878327343708,0.036466836797926255,-0.03643873572987986,0.00013614129111942576,-0.03646681953391059,-0.03577876633515756,-2.507178867746016e-05,9.36724508370882e-08,-2.5091111828656657e-05,-2.461769462434238e-05,-2.507178867746016e-05,9.36724508370882e-08,-2.5091111828656657e-05,-2.461769462434238e-05,-0.048265306122448615,13.712052101752572,-32.03,16.54,2.7630504909693445,0.019593557843454467,2.7310627122959192,2.7965133772117974,0.00765874322759857,0.004959764257654439,0.0009604754314763508,0.016088654927981765,0.014337480113771906,0.012844901236951992,1.4164370761196587e-05,0.045473249085796086,0.9226832444325124,0.016882668894174814,0.8947820127644414,0.9498161493519615,0.9385792848194208,1.428449416500332,-1.11541748046875,3.5491943359375,32.79,0.0,32.79,32.79,0.10884353741496598,0.0,0,1,0
0,0.03642034669492018,0.00020644956100828566,0.03577878327343708,0.03715489032241543,-0.03642032945291378,0.00020644946327158092,-0.037154872732663616,-0.03577876633515756,-2.505912417971651e-05,1.4204821358485688e-07,-2.5564529032970932e-05,-2.461769462434238e-05,-2.505912417971651e-05,1.4204821358485688e-07,-2.5564529032970932e-05,-2.461769462434238e-05,0.5892203389830529,13.080326088388215,-32.35,17.12,2.694750381705474,0.01994657842616358,2.661838347361075,2.727660302984859,0.024297741903623795,0.003611414002898929,0.017290995693982434,0.028220193327807112,0.02216012542685206,0.010073950675870252,0.007524881713556586,0.04501660494235493,0.8645013473676836,0.015625191256237302,0.8405722349988085,0.8915108656877352,0.08270083822624263,0.8899368583747587,-1.52130126953125,2.06756591796875,32.77631578947367,0.009296590385606408,32.77,32.79,0.10847457627118644,-0.0013684210526313067,0,1,0
0,0.03893821272262203,0.004670576083872768,0.029586301553034506,0.053668174910155624,-0.03893819428861535,0.00467057387274327,-0.05366814950273634,-0.029586287546380288,-2.6791549133948787e-05,3.2136032931533325e-06,-3.6926541936513574e-05,-2.035693978551389e-05,-2.6791549133948787e-05,3.2136032931533325e-06,-3.6926541936513574e-05,-2.035693978551389e-05,-0.8113559322033895,20.713907197382802,-54.59,59.8,2.7103844746246497,0.06992584795489643,2.64034671212369,2.8348743413241673,0.07305263755098657,0.03971372049813243,0.02302400671939717,0.12491367059100682,0.07085558244591274,0.21165791980343449,2.812842359034562e-08,0.8775794421043175,0.8262932991436728,0.006056398919651144,0.8187776402023327,0.8384486901392073,-0.18538032079608477,2.4132090132616923,-4.59136962890625,3.778076171875,32.766666666666666,0.015275252316519442,32.75,32.79,0.10847457627118644,-0.0022497420020641005,0,1,0
0,0.042287397694280526,0.0005563294076530098,0.041283211469350475,0.044035425567307176,-0.04228737767471317,0.0005563291442772882,-0.04403540472019392,-0.041283191925181796,-2.9095965475964023e-05,3.8278404727952464e-07,-3.02987010761137e-05,-2.8405032258856593e-05,-2.9095965475964023e-05,3.8278404727952464e-07,-3.02987010761137e-05,-2.8405032258856593e-05,0.4308135593220325,28.40287600648596,-51.68,67.58,2.636027421225919,0.0228554795116038,2.608962169994569,2.6881391498043894,0.03706729052652978,0.015079995106719781,0.019475661173007315,0.07193555466306926,0.008642698126172263,0.016952649295645477,1.7679161823380696e-07,0.058546817638517545,0.817388110661912,0.0003736172591344741,0.8170485284476494,0.8184171124570574,0.349164460336352,1.58003484415788,-2.117919921875,3.26690673828125,32.75444444444444,0.008314794192832278,32.75,32.77,0.10847457627118644,0.0003302373581011868,0,1,0
0,0.04199466817494465,0.00012471941451821966,0.04197126499383966,0.042659318518328826,-0.04199464829396036,0.00012471935547394525,-0.04265929832268786,-0.04197124512393483,-2.889455208916807e-05,8.58135514802652e-08,-2.935186666748515e-05,-2.8878449463170872e-05,-2.889455208916807e-05,8.58135514802652e-08,-2.935186666748515e-05,-2.8878449463170872e-05,-0.847414965986395,16.129213348752376,-40.28,21.99,2.5837096143982765,0.013396721380025222,2.561198473565136,2.607334946079019,0.008147597594177998,0.00486809070393444,0.0022736047936556163,0.018075958290673075,3.294549215561182e-05,0.00010968611623562787,4.5314342581037614e-07,0.0004953311554765638,0.8130871662590614,0.003447182323238496,0.8059262493720973,0.8169617408300777,0.27654556156128873,1.525259970114507,-2.26287841796875,2.59246826171875,32.74157894736843,0.016307298299820354,32.71,32.75,0.10884353741496598,-0.002105263157894692,0,1,0
0,0.041938500540292474,0.00014652709075391667,0.041283211469350475,0.04197126499383966,-0.04193848068589889,0.00014652702138552028,-0.04197124512393483,-0.041283191925181796,-2.8855905786775057e-05,1.0081838576806027e-07,-2.8878449463170872e-05,-2.8405032258856593e-05,-2.8855905786775057e-05,1.0081838576806027e-07,-2.8878449463170872e-05,-2.8405032258856593e-05,1.0733559322033883,17.779783604107937,-40.27,22.12,2.537440559498732,0.013052053954516526,2.5153202707854816,2.5588784178976822,0.0009448124302692067,0.0004463993569076368,0.0004945124577681202,0.0020073552297985367,0.000169177834699147,0.0006755026206615433,6.334590768111714e-07,0.002954151046314581,0.7924857020417295,0.007861504309701417,0.7791762732302783,0.8047202543698502,0.04378746948810309,1.4174268237425172,-2.28424072265625,2.59552001953125,32.72555555555556,0.008314794192829324,32.71,32.73,0.10847457627118644,-0.0008255933952526737,0,1,0
0,0.040599806955161986,0.0011325565432738264,0.03853099737139378,0.04197126499383966,-0.04059978773452847,0.0011325560071024547,-0.04197124512393483,-0.03853097913016968,-2.793481381943632e-05,7.792587834538046e-07,-2.8878449463170872e-05,-2.651136344159949e-05,-2.793481381943632e-05,7.792587834538046e-07,-2.8878449463170872e-05,-2.651136344159949e-05,0.18050847457627103,15.972915935115513,-39.83,19.61,2.488933929358224,0.014660074049986314,2.4618811403346013,2.5124218022146008,0.00019229919877129732,0.00012009187149108886,5.183966530179794e-05,0.00044809439818705777,1.8506077545767143e-07,1.1327492025594717e-07,9.431128714662909e-08,5.065567235101182e-07,0.7638115315306242,0.007988233570496179,0.7514549745051233,0.7775434890361205,-0.019548193692569403,1.663329002175555,-2.76031494140625,3.20281982421875,32.712105263157895,0.006137844099835938,32.71,32.73,0.10847457627118644,-0.0005964912280700568,0,1,0
0,0.03922373153210411,9.818185367332048e-05,0.03853099737139378,0.03990710442037213,-0.03922371296292788,9.818180719237442e-05,-0.03990708552767574,-0.03853097913016968,-2.6988001171113116e-05,6.755430649806647e-08,-2.745819785022804e-05,-2.651136344159949e-05,-2.6988001171113116e-05,6.755430649806647e-08,-2.745819785022804e-05,-2.651136344159949e-05,0.3822711864406782,16.632119709410247,-39.18,22.34,2.4495933461315613,0.009141203212110264,2.432705244838984,2.4629316397338283,0.0006611647151170861,0.0004098323737222855,3.157289258160028e-05,0.0011478299021569602,0.0006860571635555293,0.002826809460671166,1.733385943808452e-07,0.01234129087162818,0.7403824354548931,0.006119432124263691,0.7300037116132025,0.7502688674117202,-0.2437206887325958,1.9172309007419537,-3.0670166015625,3.24859619140625,32.69833333333332,0.014624940645654092,32.68,32.71,0.10847457627118644,-0.00238390092879266,0,1,0
0,0.03923309280454614,9.72851969585377e-05,0.039219050895882956,0.03990710442037213,-0.039233074230938116,9.72851509020842e-05,-0.03990708552767574,-0.03921903232892271,-2.6994442221511945e-05,6.69373592693502e-08,-2.745819785022804e-05,-2.6984780645913764e-05,-2.6994442221511945e-05,6.69373592693502e-08,-2.745819785022804e-05,-2.6984780645913764e-05,-0.10479591836734665,15.607602688851491,-42.0,18.33,2.4065718255910786,0.014784085588692113,2.383401850615612,2.430490734101847,0.0005929420652127807,0.0008103093932883995,0.00010774763176006272,0.003362748590778563,0.004874422355315992,0.012477142503555944,2.058412566507961e-07,0.05015321032027614,0.713954469318012,0.009872004091364727,0.6961756982560439,0.7286221356831624,-0.05703635014612089,1.8603478198495798,-2.96783447265625,3.38897705078125,32.682222222222215,0.016850834320115887,32.66,32.71,0.10884353741496598,-0.0011558307533539778,0,1,0
0,0.036187896179890156,0.00553793728790389,0.015137177538761842,0.04472347909179635,-0.03618787904792963,0.005537934666150961,-0.04472345791894695,-0.01513717037256666,-2.4899185935015706e-05,3.8103936615304626e-06,-3.0772118280427976e-05,-1.0415178494914085e-05,-2.4899185935015706e-05,3.8103936615304626e-06,-3.0772118280427976e-05,-1.0415178494914085e-05,-0.22786440677966188,15.7362291861349,-40.63,49.18,2.37012896923485,0.007606575727599069,2.358870105458576,2.382559774703475,0.023539954104897353,0.014185556590712405,0.005467895362083707,0.05149786321179098,0.03471975910356721,0.04044915631232776,2.224680772267007e-06,0.1319716075760582,0.6677938751645217,0.016010426067991405,0.6415189597542446,0.6935850606800384,0.0594822999561395,1.7897382211764656,-2.874755859375,3.05328369140625,32.67157894736842,0.00987455949436666,32.66,32.68,0.10847457627118644,-0.00042105263157901315,0,1,0
0,0.024666952884747937,0.002850342209672242,0.016513284587740193,0.032338515650991204,-0.02466694120699639,0.0028503408602721598,-0.03233850034139241,-0.01651327677007272,-1.6972167800926792e-05,1.9611861464467225e-06,-2.2250608602771e-05,-1.1362012903542639e-05,-1.6972167800926792e-05,1.9611861464467225e-06,-2.2250608602771e-05,-1.1362012903542639e-05,0.5894915254237253,47.02922112985113,-85.1,114.32,2.4199386578049285,0.07034942649169079,2.347869573111519,2.5575038705986293,0.10361007697689212,0.029710404333734754,0.05577058574489577,0.1488236197459903,0.09104331216527178,0.20779200596311134,3.314490504280343e-08,0.7775210207799861,0.619726520065781,0.010260631397448998,0.6058847559372923,0.6387481090801911,0.7430746212828208,2.124923356921809,-2.18658447265625,4.79583740234375,32.65999999999998,0.00816496580927757,32.65,32.68,0.13559322033898305,0.0005779153766771063,0,1,0
0,0.024625807562291584,0.0006156911662015521,0.022705766308142764,0.026146033930588636,-0.02462579590401889,0.00061569087472297,-0.02614602155261514,-0.022705755558849988,-1.694385764359948e-05,4.23628075796188e-07,-1.7989853763942512e-05,-1.5622767742371126e-05,-1.694385764359948e-05,4.23628075796188e-07,-1.7989853763942512e-05,-1.5622767742371126e-05,-1.0758983050847464,25.882442549509157,-64.81,60.79,2.331997872366854,0.016601148485499748,2.306318765919564,2.362230444820505,0.06098540510435613,0.012805266286629088,0.03645327231154754,0.07694238593912488,0.027197214483087668,0.0632402509980287,5.097670843223767e-07,0.2566835607136544,0.6076107992390231,0.0037604166712474373,0.6040214199879156,0.6158777355637404,-0.6877274430419316,1.550061704693551,-2.82745361328125,2.33917236328125,32.65999999999999,0.007947194142390564,32.65,32.68,0.10847457627118644,-0.0004912280701755528,0,1,0
0,0.024755884972947246,0.0010166574608197767,0.021329659259164413,0.027522140979566984,-0.024755873253093703,0.0010166569795169848,-0.027522127950121197,-0.02132964916134393,-1.7033357779715713e-05,6.995140867912554e-07,-1.8936688172571062e-05,-1.4675933333742575e-05,-1.7033357779715713e-05,6.995140867912554e-07,-1.8936688172571062e-05,-1.4675933333742575e-05,-0.7756122448979598,21.184270881680625,-55.55,46.65,2.2957575992177115,0.010894602167740451,2.2795132028675162,2.320192770675771,0.01670841168367816,0.007329984868326369,0.007536513628331878,0.03299640709227785,0.010998327259364248,0.03658401190486098,7.898274168027797e-08,0.15676011620391647,0.6305435411568376,0.007985651951402375,0.6173343254171415,0.6430095829715404,-0.02385179694769696,1.7741652534294785,-2.9388427734375,3.23944091796875,32.67722222222223,0.017258027296678313,32.66,32.71,0.19047619047619047,0.0016615067079464314,0,1,0
0,0.025907321483316897,0.0007513842688802222,0.023393819832631935,0.028210194504056162,-0.025907309218353873,0.0007513839131622352,-0.02821018114887423,-0.02339380875760302,-1.7825606978772267e-05,5.169921049428455e-07,-1.941010537688534e-05,-1.6096184946685404e-05,-1.7825606978772267e-05,5.169921049428455e-07,-1.941010537688534e-05,-1.6096184946685404e-05,2.749593220338982,22.754211735389504,-37.66,64.82,2.3194311396279086,0.008944059730874213,2.3022933746308265,2.338237593636322,0.011645909308849295,0.004773386466270795,0.004246737441231366,0.018436519575775412,2.3718809916359182e-07,1.5074567127237924e-07,1.3982037994075824e-07,8.423959647618773e-07,0.6490873832520361,0.0019669714229945327,0.6441710890606059,0.650796874647334,0.07885963686050908,1.66178069317953,-2.52838134765625,3.05938720703125,32.70368421052632,0.023888012037706435,32.66,32.73,0.10847457627118644,0.003052631578947409,0,1,0
0,0.025834550240448215,0.0005674649845165243,0.024081873357121114,0.027522140979566984,-0.025834538009936413,0.0005674647158690299,-0.027522127950121197,-0.02408186195635605,-1.777553651604349e-05,3.9044591293316593e-07,-1.8936688172571062e-05,-1.656960215099968e-05,-1.777553651604349e-05,3.9044591293316593e-07,-1.8936688172571062e-05,-1.656960215099968e-05,-3.1177627118644056,33.2555606525672,-62.56,63.44,2.2985762019763976,0.002366217800828188,2.293918684963514,2.3012811757823113,0.004842820961160695,0.0020385782926078486,0.0022875898089089394,0.008068447103391134,0.005095208615102931,0.013068638918907765,1.7104329827488662e-07,0.048285085790119836,0.6434200233107142,0.004027485595448626,0.6362983645655732,0.649234902452925,0.28963435188125386,1.767989571326848,-2.703857421875,3.09600830078125,32.72777777777779,0.014740554623801222,32.71,32.75,0.10847457627118644,0.0013209494324042195,0,1,0
0,0.024821413880041412,0.0011879229731683093,0.01788939163671854,0.028898248028545334,-0.024821402129165438,0.0011879224107855366,-0.02889823434762726,-0.01788938316757878,-1.7078445132507556e-05,8.173538146113981e-07,-1.9883522581199616e-05,-1.230884731217119e-05,-1.7078445132507556e-05,8.173538146113981e-07,-1.9883522581199616e-05,-1.230884731217119e-05,1.101938775510202,34.50979243826751,-85.22,68.12,2.2686199488904553,0.010891064639918936,2.2530397107237325,2.2887068705730313,0.003226197598898809,0.0017472978150980922,0.0011971624781974793,0.006798269554408509,0.003221274102254071,0.01105536564965715,1.633925975907946e-07,0.047778242996454744,0.6279310647920358,0.004375104461705842,0.6209741367899876,0.6353661796272839,0.10064695372474992,1.6075561411591832,-2.55584716796875,2.98614501953125,32.77222222222222,0.014740554623801225,32.75,32.79,0.10884353741496598,0.002641898864808967,0,1,0
0,0.025298838774584918,0.0006669865556607244,0.022705766308142764,0.026834087455077812,-0.02529882679768794,0.0006669862398980388,-0.02683407475136817,-0.022705755558849988,-1.740693870284808e-05,4.5892201588610217e-07,-1.8463270968256787e-05,-1.5622767742371126e-05,-1.740693870284808e-05,4.5892201588610217e-07,-1.8463270968256787e-05,-1.5622767742371126e-05,-0.7092203389830536,58.22196930918419,-117.7,116.69,2.2450240452817685,0.013576105434463361,2.2218339752748495,2.2628918352259415,0.003731765593847613,0.0014980387042945794,0.0013954424779354345,0.005871823160672003,4.5871065817079817e-07,5.449928574894514e-07,1.2763619820777006e-07,2.4693324835733943e-06,0.6120411724860046,0.005321933384369924,0.6025503966551118,0.6201780950492576,0.2308985139832603,1.8339996027540895,-2.61383056640625,3.2257080078125,32.80052631578947,0.011909166841037525,32.79,32.83,0.08135593220338982,0.001894736842105447,0,1,0
0,0.03655981700393831,0.00956230788334575,0.016513284587740193,0.05298012138566645,-0.03655979969590423,0.009562303356387903,-0.05298009630398331,-0.01651327677007272,-2.515508712653697e-05,6.5793734118095325e-06,-3.64531247321993e-05,-1.1362012903542639e-05,-2.515508712653697e-05,6.5793734118095325e-06,-3.64531247321993e-05,-1.1362012903542639e-05,-1.795457627118642,34.464819592395074,-103.29,62.18,2.2801393074693532,0.07915916735185667,2.2053563650957044,2.4055902025009663,0.04854759184176088,0.05297062267533484,0.0010902721450551155,0.12285835073014069,0.07451109810685684,0.3045855594482062,7.709785387888246e-08,1.3303080051650513,0.5871905708469499,0.009438017156056938,0.5704320824377003,0.6012499782068297,0.9270668325681625,2.969782442677524,-2.80914306640625,7.09075927734375,32.841111111111125,0.013698697784375019,32.83,32.87,0.10847457627118644,0.00218782249742015,0,1,0
0,0.008326851837185309,0.00547199806331136,0.0,0.025457980406099465,0.0024292490486586557,0.009663223032819546,-0.02545796835386211,0.01582522357131969,1.6714525784973436e-06,6.648811517995447e-06,-1.7516436559628233e-05,1.088859569922836e-05,1.6714525784973436e-06,6.648811517995447e-06,-1.7516436559628233e-05,1.088859569922836e-05,2.796847457627124,36.52188256829957,-115.16,89.55,2.2118146491034434,0.046263936844257385,2.150515497189651,2.2913540167042163,0.05166797140927909,0.018196079902925353,0.03530036054676477,0.0953969352586873,0.022091707710224295,0.04688636464952449,2.681359463352351e-07,0.14411146893524573,0.5458715357384953,0.013768891837631084,0.5231434467921977,0.5681246595986096,-1.0756556508558854,1.248517691844143,-3.302001953125,0.64544677734375,32.84684210526317,0.014161709523233557,32.83,32.87,0.10847457627118644,0.000385964912280413,0,1,0
0,0.04047346140311485,0.00987402371206891,0.002064160573467524,0.04953985376322058,-0.04033302322214201,0.010432785661379758,-0.04953983031021816,0.00412831919251818,-2.7751265643375023e-05,7.178311546217089e-06,-3.408603871062791e-05,2.8405032258856597e-06,-2.7751265643375023e-05,7.178311546217089e-06,-3.408603871062791e-05,2.8405032258856597e-06,2.7238435374149663,31.62104666784573,-94.23,52.72,2.092762185590264,0.03646519492385184,2.0456200545252705,2.1454002865620305,0.021957042119968708,0.009740719970273723,0.00936952828666084,0.03690925887910042,0.0012191299475646001,0.005013949589269781,1.1759858142834645e-07,0.021892141637579077,0.5014874708729553,0.011086950713012394,0.4845740729510817,0.5206590761759013,0.031828584505369885,1.0673181622171783,-2.06451416015625,1.93328857421875,32.83444444444446,0.004969039950002076,32.83,32.84,0.10884353741496598,0.00016511867905065207,0,1,0
0,0.04334737204281792,7.998459755122927e-05,0.042659318518328826,0.044035425567307176,-0.04334735152144102,7.998455968517139e-05,-0.04403540472019392,-0.04265929832268786,-2.9825283871799453e-05,5.503363214223475e-08,-3.02987010761137e-05,-2.935186666748515e-05,-2.9825283871799453e-05,5.503363214223475e-08,-3.02987010761137e-05,-2.935186666748515e-05,-1.2761016949152566,18.936318080089805,-50.28,31.79,2.0156089180789283,0.01335462972279077,1.9942169667535257,2.0412829740104486,0.003686541750223455,0.002288701286020516,0.000996864709708831,0.008525725879511042,2.640285929326659e-07,2.1418646970610045e-07,8.610075060908051e-08,7.906920606037815e-07,0.47230111869571667,0.005545962176154291,0.46497926233279385,0.4829601509440894,0.3776644950469138,1.1420035206409358,-2.01568603515625,2.301025390625,32.8384210526316,0.0036464227527784497,32.83,32.84,0.13559322033898305,-0.00042105263157916277,0,1,0
0,0.03211384511238243,0.006715752317957267,0.02476992688161029,0.05435622843464479,-0.032113829909146505,0.006715749138606859,-0.054356202701489366,-0.02476991515510908,-2.209602339319897e-05,4.620792676841341e-06,-3.739995914082785e-05,-1.7043019355313955e-05,-2.209602339319897e-05,4.620792676841341e-06,-3.739995914082785e-05,-1.7043019355313955e-05,-0.5915254237288134,52.201237663539025,-161.73,146.34,2.0562697214216747,0.048496353100522326,1.9880996206025812,2.124748734654977,0.03724204901281624,0.023013017540749366,0.0006048433238519948,0.05700265357681855,0.04902932272875036,0.1330994378063149,1.197933950092267e-07,0.5691098807316444,0.46513854953250866,0.0015238649032390046,0.46377250640696877,0.4688075041014157,-0.4657254173191223,1.7043193422844825,-2.67791748046875,2.85797119140625,32.83111111111111,0.006573421981222623,32.81,32.84,0.13559322033898305,-0.00018575851393173428,0,1,0
0,0.028214843514356727,9.78503473237217e-05,0.027522140979566984,0.028898248028545334,-0.02821483015697388,9.785030099971691e-05,-0.02889823434762726,-0.027522127950121197,-1.941330414177931e-05,6.732621260180221e-08,-1.9883522581199616e-05,-1.8936688172571062e-05,-1.941330414177931e-05,6.732621260180221e-08,-1.9883522581199616e-05,-1.8936688172571062e-05,0.15193220338983005,13.242627088262866,-30.76,17.3,2.0875638337047944,0.0029503498482261912,2.0809000657969237,2.095223002428058,0.04044392769396877,0.007230184615631349,0.02743497452783175,0.050440282147590276,0.02178352491872932,0.03458966620336142,3.591455101092933e-06,0.11375038948934035,0.47946724034805804,0.006463336398938682,0.46967304889058953,0.4905731147632858,0.10210132510108012,1.6598244106492424,-2.2216796875,3.43475341796875,32.82222222222222,0.009749960430433751,32.81,32.83,0.13559322033898305,0.00026831785345711895,0,1,0
0,0.028144665596961913,0.0002019736562453932,0.027522140979566984,0.028210194504056162,-0.028144652272802478,0.00020197356062765618,-0.02821018114887423,-0.027522127950121197,-1.936501802409346e-05,1.389685544533981e-07,-1.941010537688534e-05,-1.8936688172571062e-05,-1.936501802409346e-05,1.389685544533981e-07,-1.941010537688534e-05,-1.8936688172571062e-05,-1.460136054421769,15.683596243781327,-37.14,19.8,2.0808526000867196,0.002618817147424815,2.075676286412231,2.0843403106895337,0.012577123235920426,0.007132048877839235,0.003633255730220759,0.02602043388738165,5.083831413779222e-06,1.9431169823594437e-05,8.389711995959725e-08,8.740618324942773e-05,0.5031777790541,0.006345213186538435,0.49195947484451114,0.5124465499833137,-0.0026306625484496123,1.8909505663460209,-3.1341552734375,3.36151123046875,32.827894736842104,0.010041465278072917,32.81,32.84,0.10884353741496598,-0.0012280701754386761,0,1,0
0,0.02816806877806699,0.0002157158940382061,0.027522140979566984,0.028898248028545334,-0.028168055442828084,0.00021571579191466278,-0.02889823434762726,-0.027522127950121197,-1.9381120650090548e-05,1.4842394064842683e-07,-1.9883522581199616e-05,-1.8936688172571062e-05,-1.9381120650090548e-05,1.4842394064842683e-07,-1.9883522581199616e-05,-1.8936688172571062e-05,1.8794576271186434,15.498313731480307,-38.51,23.25,2.080511507876606,0.0030147993430512943,2.0756534329912935,2.083524931774911,0.001707085741280757,0.0005923233163681429,0.0010433336677350136,0.0032082523827849374,0.0006217056914850001,0.002488546047335982,1.2863010156322074e-07,0.01087890140839444,0.5151666623288242,0.0008030432732225308,0.5131066133522424,0.5159618965544596,0.33252513671269,2.257304062798568,-3.3660888671875,4.345703125,32.812222222222225,0.014740554623801224,32.79,32.83,0.10847457627118644,0.0013209494324045712,0,1,0
0,0.022264110329585512,0.007223459503259817,0.004816374671424223,0.04197126499383966,-0.022264099789380137,0.007223456083552234,-0.04197124512393483,-0.00481637239127121,-1.5318885077439685e-05,4.970122064340153e-06,-2.8878449463170872e-05,-3.313920430199936e-06,-1.5318885077439685e-05,4.970122064340153e-06,-2.8878449463170872e-05,-3.313920430199936e-06,1.8179322033898295,29.442840333613496,-66.97,97.61,2.0902231114406633,0.029138242933446926,2.06216799356546,2.1494369801226805,0.012552906117876366,0.019606995578697148,0.00034382284323200107,0.05250061331279454,0.031072777030584753,0.11356327899961248,1.5620422473376638e-07,0.5091893275021458,0.5095301637243922,0.003234943508580462,0.5038907726591612,0.5143207433064364,-1.7389037177225497,8.20269016326099,-13.02642822265625,9.234619140625,32.818421052631564,0.009874559494363147,32.81,32.83,0.10847457627118644,-0.0015438596491224997,0,1,0
0,0.027536182888230024,0.01066546206677764,0.011696909916315968,0.04678763966526387,-0.027536169852136572,0.010665457017567988,-0.04678761751520604,-0.01169690437880151,-1.8946349748169328e-05,7.338401817100605e-06,-3.219236989337081e-05,-8.048092473342702e-06,-1.8946349748169328e-05,7.338401817100605e-06,-3.219236989337081e-05,-8.048092473342702e-06,-1.2589152542372881,50.46506635498618,-152.58,144.26,2.1280327619853323,0.03221865975558763,2.0330681069570153,2.154970774480487,0.045873606963659726,0.01256290097146741,0.02194071697620123,0.05879702055528599,0.01937634053568904,0.04028102116182364,5.4814734862240755e-08,0.16576616993956872,0.49809081212349565,0.0029517531969759842,0.4936090971706126,0.5032211084902678,1.4384710895989277,2.4017365279149767,-3.99932861328125,5.33599853515625,32.82222222222222,0.012717247935843676,32.81,32.84,0.13559322033898305,0.0021671826625386205,0,1,0
0,0.0377259279413793,0.00037962239401990246,0.03577878327343708,0.039219050895882956,-0.03772591008128857,0.0003796222143002612,-0.03921903232892271,-0.03577876633515756,-2.5957433107299762e-05,2.612002788670033e-07,-2.6984780645913764e-05,-2.461769462434238e-05,-2.5957433107299762e-05,2.612002788670033e-07,-2.6984780645913764e-05,-2.461769462434238e-05,0.4356802721088444,54.472411297503974,-124.96,110.91,2.0525664180095653,0.012658831109418586,2.0373180353055367,2.081341489507009,0.00932133208011626,0.00488847062030443,0.003036215904704962,0.019475559951928054,0.0009769802883961465,0.0035131524202623153,1.1825654985808676e-07,0.015302053633280022,0.4908241889951047,0.0011508912784923934,0.48958710954894025,0.49318972023802826,0.4550763454389927,1.1497409050343408,-1.28021240234375,2.94952392578125,32.83388888888889,0.00487498021522034,32.83,32.84,0.08163265306122448,0.000464396284829959,0,1,0
0,0.03756865223916907,0.0006284767287379121,0.034402676224458736,0.03990710442037213,-0.0375686344535354,0.000628476431206429,-0.03990708552767574,-0.0344026599376515,-2.58492191085383e-05,4.32425218832472e-07,-2.745819785022804e-05,-2.367086021571383e-05,-2.58492191085383e-05,4.32425218832472e-07,-2.745819785022804e-05,-2.367086021571383e-05,-1.4725084745762707,30.71818232306362,-74.88,46.98,2.0541428634101573,0.014121752473107593,2.0377795607204043,2.0815091019722702,0.007955664231674821,0.0063237121722009145,0.0024729410851881952,0.019572903835728492,0.012294774265057156,0.034366602327366824,6.205887899679574e-07,0.1492148108054923,0.4917357609554562,0.0017895405760716024,0.48961579435918673,0.495245179342705,0.0372368407900221,0.8987341557621613,-1.57318115234375,1.82342529296875,32.86,0.016858544608469802,32.83,32.87,0.10847457627118644,0.0011754385964911187,0,1,0
0,0.03692553914758568,0.0007627857520970386,0.035090729748947905,0.03990710442037213,-0.03692552166641263,0.0007627853909814,-0.03990708552767574,-0.03509071313640453,-2.5406723298199536e-05,5.248369282268315e-07,-2.745819785022804e-05,-2.4144277420028106e-05,-2.5406723298199536e-05,5.248369282268315e-07,-2.745819785022804e-05,-2.4144277420028106e-05,-0.8699661016949136,65.87681578495541,-149.99,185.1,2.0735007301905632,0.015090903801858046,2.045244688600785,2.1106823428462045,0.011800875797392559,0.003527732233676092,0.005512078821070415,0.01791746104814894,0.003382168754903117,0.013940725899168886,6.522356427174358e-08,0.06086125385164476,0.49990167548930714,0.0023885161184976893,0.4957557289547444,0.503398896585225,0.029318368919436472,1.2009134652240432,-2.25067138671875,1.995849609375,32.856666666666676,0.014907119849995633,32.84,32.87,0.10847457627118644,-0.0024767801857580214,0,1,0
0,0.03722462547692442,0.00020765001099528406,0.03715489032241543,0.037842943846904606,-0.03722460785415894,0.0002076499126902672,-0.03784292593141665,-0.037154872732663616,-2.5612510506381243e-05,1.428741866473263e-07,-2.6037946237285214e-05,-2.5564529032970932e-05,-2.5612510506381243e-05,1.428741866473263e-07,-2.6037946237285214e-05,-2.5564529032970932e-05,0.5145762711864412,30.65333239395601,-74.15,60.9,2.065007702454731,0.0045613265708453485,2.059609241563992,2.0732758236237663,0.00404588220774249,0.0028105175110879517,0.001112366059966759,0.0096152212676557,0.005207404247255257,0.022079130625998467,1.4319736287016216e-07,0.09888121978059153,0.5031691913000447,0.001295920611129248,0.50006367951715,0.5043152449718243,0.022492988529631282,1.0783641708193799,-1.73797607421875,2.14996337890625,32.85105263157896,0.014471291668278721,32.84,32.87,0.10847457627118644,0.0013684210526313067,0,1,0
0,0.037248503046835725,0.00023589663584084488,0.03715489032241543,0.037842943846904606,-0.03724848541276611,0.00023589652416340022,-0.03784292593141665,-0.037154872732663616,-2.5628939536959333e-05,1.6230935802534945e-07,-2.6037946237285214e-05,-2.5564529032970932e-05,-2.5628939536959333e-05,1.6230935802534945e-07,-2.6037946237285214e-05,-2.5564529032970932e-05,0.09421768707483047,15.509304730758371,-42.89,34.65,2.0605902505557023,0.005341361855971579,2.051810821818055,2.0692905752679027,0.009826929006829214,0.0008439088346493023,0.007679354804859921,0.011215898487641665,0.006178254862575598,0.010990421076217966,1.0901538985419457e-07,0.042400732133998864,0.49293924980751314,0.004057329377556057,0.4863461809805995,0.4994132805116278,-0.0841992664573802,0.9338236646602969,-1.60064697265625,1.6510009765625,32.84166666666668,0.006871842709361396,32.84,32.87,0.10884353741496598,-0.0005263157894735795,0,1,0
0,0.03715020968619434,9.818185367332027e-05,0.036466836797926255,0.037842943846904606,-0.0371501920986586,9.81818071923745e-05,-0.03784292593141665,-0.03646681953391059,-2.5561308507771604e-05,6.75543064980665e-08,-2.6037946237285214e-05,-2.5091111828656657e-05,-2.5561308507771604e-05,6.75543064980665e-08,-2.6037946237285214e-05,-2.5091111828656657e-05,0.4775932203389823,22.590908024996537,-43.16,62.21,2.0354832840957386,0.009891500900283871,2.008744815501154,2.049390748599165,0.007015989212317719,0.0018381167164876,0.004390803276903034,0.009958230227544355,0.004365519430773236,0.018518294001348093,1.0234476213732968e-07,0.08293198695823562,0.48193419583630137,0.0016342191097587044,0.4804186092020131,0.4856485168380835,0.09626667789430832,1.0602360100466384,-1.70745849609375,2.0904541015625,32.84000000000002,1.4210854715202004e-14,32.84,32.84,0.10847457627118644,0.0,0,1,0
0,0.03715024131211477,0.00027120112264829256,0.036466836797926255,0.03853099737139378,-0.03715022372456402,0.0002712009942571068,-0.03853097913016968,-0.03646681953391059,-2.556133026807699e-05,1.8660071160360447e-07,-2.651136344159949e-05,-2.5091111828656657e-05,-2.556133026807699e-05,1.8660071160360447e-07,-2.651136344159949e-05,-2.5091111828656657e-05,-2.021491525423727,20.627882031303788,-46.15,35.45,2.0340542906963535,0.009398687398189288,2.022213021079855,2.054169024846928,0.003596435059363642,0.0013222679031630342,0.0015724994492590173,0.0054602311533707764,0.0028124734686693453,0.011594134026644918,1.1482017353570129e-07,0.05061631252515293,0.4845003302920192,0.0018813686232835196,0.4813517180219374,0.4870924170160623,0.7526739761395148,1.1851699981170338,-1.69219970703125,2.44598388671875,32.84000000000002,1.4210854715202004e-14,32.84,32.84,0.10847457627118644,0.0,0,1,0
0,0.037140848413752314,9.728519695853772e-05,0.036466836797926255,0.03715489032241543,-0.037140830830648355,9.728515090208435e-05,-0.037154872732663616,-0.03646681953391059,-2.5554867457372768e-05,6.693735926935023e-08,-2.5564529032970932e-05,-2.5091111828656657e-05,-2.5554867457372768e-05,6.693735926935023e-08,-2.5564529032970932e-05,-2.5091111828656657e-05,2.681292517006803,36.512784729044384,-102.05,55.8,2.027951729656539,0.00783258053520166,2.0167789994802328,2.0463280384043308,0.002206063240477258,0.0009763544413628379,0.0008942865327865321,0.004063313013029503,0.0037743637311398845,0.009876074697234944,9.870265768596731e-08,0.034823125612832365,0.4827871545286948,0.0043939703950491085,0.473117005119182,0.4871538241450029,-0.9807307430295731,1.6097754692202109,-3.54156494140625,2.35443115234375,32.831111111111106,0.003142696805275154,32.83,32.84,0.10884353741496598,-0.00033023735810130413,0,1,0
0,0.03725318368305672,0.000739925538336498,0.034402676224458736,0.04197126499383966,-0.037253166046771244,0.0007399251880432675,-0.04197124512393483,-0.0344026599376515,-2.563216006215875e-05,5.091078924711075e-07,-2.8878449463170872e-05,-2.367086021571383e-05,-2.563216006215875e-05,5.091078924711075e-07,-2.8878449463170872e-05,-2.367086021571383e-05,0.6206101694915277,34.37204834490233,-87.0,45.51,2.003737083760522,0.008642899643294871,1.9867504221677357,2.016081561190999,0.02241402215199683,0.011124008107007189,0.005216188952582417,0.04016333093885037,0.033337673301480686,0.0195485310471255,0.0044197280623455015,0.07577248818346727,0.4463757523568195,0.016313463527526762,0.41825468860254833,0.471086959663866,0.4728596500368331,1.0577693811687587,-1.373291015625,2.4566650390625,32.83,0.0,32.83,32.83,0.10847457627118644,0.0,0,1,0
0,0.03614605508718467,0.005126142619230661,0.021329659259164413,0.05298012138566645,-0.03614603797503247,0.005126140192428275,-0.05298009630398331,-0.02132964916134393,-2.48703970509696e-05,3.527057156656747e-06,-3.64531247321993e-05,-1.4675933333742575e-05,-2.48703970509696e-05,3.527057156656747e-06,-3.64531247321993e-05,-1.4675933333742575e-05,3.273525423728811,54.5748960707275,-111.65,124.46,1.9459029983726905,0.0379356203058856,1.870667780201447,1.9856369024995115,0.04213998630954983,0.006782205204340144,0.030276586590265504,0.05201044135524389,0.02754002092372646,0.06524264321984133,7.007702007566508e-08,0.23796763565280865,0.38972563719642983,0.014361196180921812,0.36861437613336423,0.4149543044708153,-0.031209739142976263,2.125907280089875,-3.63311767578125,3.50189208984375,32.82111111111111,0.01662958838566161,32.79,32.83,0.10847457627118644,0.001981424148606769,0,1,0
0,0.039083312445473445,0.0022580953169204295,0.031650462126502035,0.042659318518328826,-0.03908329394277423,0.0022580942479000186,-0.04265929832268786,-0.03165044714263938,-2.689138541513069e-05,1.5536889703534254e-06,-2.935186666748515e-05,-2.177719139845672e-05,-2.689138541513069e-05,1.5536889703534254e-06,-2.935186666748515e-05,-2.177719139845672e-05,-0.45769491525423983,47.5917999001659,-127.18,95.27,1.8637636194828984,0.022080932241841534,1.8348517192984042,1.901170808245616,0.025647543216295872,0.007171315539842856,0.013775572678759293,0.03711062843768398,0.017814804848848283,0.047337261768583785,7.590494133236092e-08,0.19201796641077912,0.3610483775039795,0.0022275648083833733,0.359098270519866,0.36694884446789067,0.4478653370594564,1.5220135674355908,-2.069091796875,3.56292724609375,32.81736842105262,0.016170833153406908,32.79,32.83,0.10847457627118644,-0.0009122807017541794,0,1,0
0,0.037608912035853904,0.0004208409976751522,0.036466836797926255,0.03853099737139378,-0.037608894231160525,0.00042084079844192696,-0.03853097913016968,-0.03646681953391059,-2.587691997731438e-05,2.8956085753374753e-07,-2.651136344159949e-05,-2.5091111828656657e-05,-2.587691997731438e-05,2.8956085753374753e-07,-2.651136344159949e-05,-2.5091111828656657e-05,-3.417074829931972,22.53760010857998,-75.17,31.68,1.8608151241741042,0.007991623090152975,1.850926469101482,1.8795448635154213,0.01688092772390918,0.00705125791245408,0.007810579040488228,0.02936625636014071,0.014677906804380664,0.029573812895791977,1.835507281722215e-07,0.09862503495736541,0.3660116796774909,0.0024543487683682096,0.3615498405990672,0.36891662169669825,0.20577310036784663,1.1667291583063684,-1.727294921875,2.642822265625,32.81222222222222,0.011331154474649927,32.79,32.83,0.10884353741496598,-0.0004953560371518389,0,1,0
0,0.03724787052842743,0.000284464730899994,0.036466836797926255,0.03853099737139378,-0.03724785289465735,0.00028446459622959364,-0.03853097913016968,-0.03646681953391059,-2.562850433085132e-05,1.957267753677614e-07,-2.651136344159949e-05,-2.5091111828656657e-05,-2.562850433085132e-05,1.957267753677614e-07,-2.651136344159949e-05,-2.5091111828656657e-05,-2.0212542372881352,22.579967050157773,-59.31,27.68,1.8742221068547271,0.005785487667356758,1.8632246812337336,1.8829197735673684,0.02955700298013055,0.003727974525581102,0.022570981458876836,0.03671731009026731,0.032826928123806845,0.05476815086447669,1.1606717390089116e-05,0.2348204818041455,0.3604698868094706,0.007060239144550925,0.34655389806757897,0.3688041517585844,-0.1341841061121181,1.4447772829248064,-2.73284912109375,2.313232421875,32.80052631578948,0.011909166841037525,32.79,32.83,0.10847457627118644,0.0013333333333334296,0,1,0
0,0.0388352387257598,0.001413350640044236,0.035090729748947905,0.041283211469350475,-0.03883522034050268,0.0014133499709401986,-0.041283191925181796,-0.03509071313640453,-2.6720697579561557e-05,9.724599684629072e-07,-2.8405032258856593e-05,-2.4144277420028106e-05,-2.6720697579561557e-05,9.724599684629072e-07,-2.8405032258856593e-05,-2.4144277420028106e-05,0.09271186440677928,18.769809822728224,-43.55,49.26,1.8132245238803033,0.04987665359738251,1.7497849664918061,1.8682651219250148,0.02953723151867219,0.012347347855213773,0.012139319826626159,0.04688457793398959,0.008961417008267377,0.03691017141319081,3.2264421689909284e-08,0.16114590422358066,0.3255242706826509,0.011603807622641883,0.30688187392420574,0.34446608856327465,0.33708904383532423,2.897898360857215,-4.82940673828125,5.596923828125,32.81777777777776,0.009749960430433751,32.81,32.83,0.10847457627118644,-0.000928792569659258,0,1,0
0,0.03870765976281674,0.0005991995377402252,0.03715489032241543,0.041283211469350475,-0.038707641437957574,0.0005991992540690576,-0.041283191925181796,-0.037154872732663616,-2.6632916507572114e-05,4.122809634526454e-07,-2.8405032258856593e-05,-2.5564529032970932e-05,-2.6632916507572114e-05,4.122809634526454e-07,-2.8405032258856593e-05,-2.5564529032970932e-05,0.22281355932203373,15.115744711577353,-34.36,48.48,1.7600582319879896,0.004370468247705348,1.7517034465308396,1.7671182004028738,0.027797094716115005,0.004165144287423243,0.016220426183905103,0.031239666140200406,0.02208770253978281,0.021641270666869074,3.145875297916323e-05,0.07717456340316886,0.29289637785653644,0.006104337991589607,0.2852464386797871,0.30491295221841364,-0.4841098199525384,2.6109573573247506,-4.84771728515625,3.96270751953125,32.81555555555556,0.008958064164774383,32.81,32.83,0.13559322033898305,0.001341589267285595,0,1,0
0,0.03852163609895181,7.970836264601058e-05,0.037842943846904606,0.03853099737139378,-0.03852161786215938,7.970832491072719e-05,-0.03853097913016968,-0.03784292593141665,-2.6504922391200708e-05,5.48435679220714e-08,-2.651136344159949e-05,-2.6037946237285214e-05,-2.6504922391200708e-05,5.48435679220714e-08,-2.651136344159949e-05,-2.6037946237285214e-05,-0.17761904761904748,13.19112228948833,-29.57,15.61,1.739489303668533,0.007140608048419551,1.7269665368595146,1.7498421574540723,0.0235250568655979,0.004794080586116174,0.014780561113978718,0.029579885642820637,0.010702795672660543,0.011766531762087199,2.600076859204936e-06,0.03898322686457556,0.28467124985193953,0.0005945473638478214,0.2840286793608733,0.285974897928221,-0.14227531492248063,1.1193587905778206,-2.08740234375,2.05841064453125,32.83,0.0,32.83,32.83,0.10884353741496598,0.0,0,1,0
0,0.0385497199162779,0.00011194453674899937,0.03853099737139378,0.039219050895882956,-0.038549701666190116,0.00011194448375256711,-0.03921903232892271,-0.03853097913016968,-2.6524245542397205e-05,7.702376012871029e-08,-2.6984780645913764e-05,-2.651136344159949e-05,-2.6524245542397205e-05,7.702376012871029e-08,-2.6984780645913764e-05,-2.651136344159949e-05,0.3484745762711873,12.725604219754288,-28.3,15.83,1.713743017720252,0.007460613364355125,1.7015305251449637,1.724731709533185,0.006073455434547565,0.0035696479920326956,0.0017907913666029933,0.013466279874917445,2.864451983660174e-07,3.181739657999371e-07,1.0639128784212248e-07,1.3962620830643147e-06,0.28655160081039655,0.0005875048944081933,0.28505657895840875,0.28714667073041444,0.06910768533174644,1.3848963162387165,-2.130126953125,2.60772705078125,32.835555555555565,0.004969039950002076,32.83,32.84,0.10847457627118644,0.0008255933952532604,0,1,0
0,0.03855424242289685,0.00012431213615010634,0.03853099737139378,0.039219050895882956,-0.03855422417066804,0.0001243120772986439,-0.03921903232892271,-0.03853097913016968,-2.652735726606962e-05,8.553332242896572e-08,-2.6984780645913764e-05,-2.651136344159949e-05,-2.652735726606962e-05,8.553332242896572e-08,-2.6984780645913764e-05,-2.651136344159949e-05,0.09366101694915192,12.225448485219324,-28.04,16.11,1.68838201058023,0.008096973959162259,1.6757985524220433,1.7012944472316633,0.0006422619301830275,0.0004208404499656066,0.00016656607125339944,0.001580767126690121,1.7344060022700356e-07,1.0388572178457843e-07,9.922640699724927e-08,4.610072732564273e-07,0.27849216355106143,0.004161245453150038,0.27109813167491337,0.2845973432680027,-0.022505767292183624,1.584665957622088,-2.36968994140625,2.76641845703125,32.839473684210546,0.0022329687826955027,32.83,32.84,0.10847457627118644,-0.00015789473684218604,0,1,0
0,0.038591845642267045,0.00019535699415458522,0.03853099737139378,0.039219050895882956,-0.03859182737223623,0.0001953569016692887,-0.03921903232892271,-0.03853097913016968,-2.655323026919195e-05,1.3441594109203474e-07,-2.6984780645913764e-05,-2.651136344159949e-05,-2.655323026919195e-05,1.3441594109203474e-07,-2.6984780645913764e-05,-2.651136344159949e-05,-0.05732203389830535,11.974295433702238,-26.86,14.8,1.6632027085834653,0.007487941013793641,1.651570023725235,1.6745539684313888,0.0002166592056322798,0.0002701548471356709,3.4719438141441874e-05,0.0009109775480991118,0.0006030380873299698,0.0020395804358221163,5.294800078528908e-07,0.008830795614249203,0.26201708970208415,0.004944715032522616,0.2540553739364342,0.2701587353761756,0.07081820363403661,1.7196308796365416,-2.545166015625,3.2318115234375,32.838333333333345,0.003726779962501555,32.83,32.84,0.10847457627118644,0.000464396284829959,0,1,0
0,0.03867609709424529,0.0002806821086902025,0.03853099737139378,0.039219050895882956,-0.038676078784328445,0.0002806819758105571,-0.03921903232892271,-0.03853097913016968,-2.661119972278143e-05,1.9312413128877402e-07,-2.6984780645913764e-05,-2.651136344159949e-05,-2.661119972278143e-05,1.9312413128877402e-07,-2.6984780645913764e-05,-2.651136344159949e-05,0.361428571428571,12.235372163231862,-26.14,15.81,1.639494026449905,0.0068324992960631156,1.6284600061023082,1.6510781523770393,0.00115798229280784,0.0002697076741502874,0.0008159194981346411,0.0015932078244305869,0.0006716915011505646,0.0024845364472773205,4.970780376443995e-07,0.010855420156592407,0.2461788928599581,0.0041570644058885374,0.2395384217489775,0.2531749028803122,0.030255850136427963,1.8279494197909307,-2.886962890625,3.2958984375,32.83722222222222,0.009312808119022936,32.83,32.87,0.10884353741496598,0.0005263157894735795,0,1,0
0,0.03879134194822761,0.00033369402899266693,0.03853099737139378,0.039219050895882956,-0.0387913235837519,0.0003336938710162841,-0.03921903232892271,-0.03853097913016968,-2.669049427566435e-05,2.295991353570352e-07,-2.6984780645913764e-05,-2.651136344159949e-05,-2.669049427566435e-05,2.295991353570352e-07,-2.6984780645913764e-05,-2.651136344159949e-05,0.3212881355932199,11.66012351455185,-26.9,14.71,1.6148690090677988,0.007180656406153781,1.6028626482652053,1.6270853137018149,0.00030224283902970236,0.00019417721673352934,7.967058354493361e-05,0.0007276432425451044,2.0518960565317325e-07,1.0093443277627969e-07,1.068314749612994e-07,4.3982206350545727e-07,0.23239191825601357,0.003849005261979631,0.2261284566451771,0.2387991205539302,0.5034501144371317,2.0141323118371828,-2.68402099609375,3.63311767578125,32.848947368421065,0.016509881201428035,32.83,32.87,0.10847457627118644,-0.0010526315789469345,0,1,0
0,0.03675703624362917,0.004563977950089962,0.019953552210186066,0.04472347909179635,-0.03675701884222818,0.004563975789425815,-0.04472345791894695,-0.01995354276383787,-2.5290784391020486e-05,3.1402581409458173e-06,-3.0772118280427976e-05,-1.372909892511402e-05,-2.5290784391020486e-05,3.1402581409458173e-06,-3.0772118280427976e-05,-1.372909892511402e-05,-0.49522033898305096,11.443443442985451,-24.7,24.77,1.5946470998996887,0.011985300353729144,1.5828232279472159,1.6358869961812736,0.0029031303718288414,0.007419479100471782,1.406070506110964e-05,0.02841748738663823,0.02220101163215567,0.08451148499219696,1.0782991878262663e-07,0.3694917722971512,0.21912977728956623,0.004043278193347053,0.2121010074730233,0.22544140939419244,0.3162915463259677,1.7392603873496328,-2.44598388671875,2.91290283203125,32.85333333333334,0.014907119849995633,32.84,32.87,0.10847457627118644,0.001486068111454813,0,1,0
0,0.034388729193556934,0.005041866138857063,0.020641605734675238,0.04541153261628553,-0.03438871291335245,0.005041863751952593,-0.045411511117699976,-0.020641595962590898,-2.366126392103178e-05,3.4690704822079354e-06,-3.124553548474225e-05,-1.4202516129428297e-05,-2.366126392103178e-05,3.4690704822079354e-06,-3.124553548474225e-05,-1.4202516129428297e-05,-0.5857627118644083,37.68968751656396,-73.41,143.98,1.6339409748041505,0.01720223426364071,1.5977340432020368,1.6631564307505724,0.044361595187001425,0.005441338490423153,0.03415498028336643,0.0515508109927224,0.03601920902204542,0.07581783241326522,3.131293113689537e-07,0.23118014974833523,0.20014024671182315,0.007368884038882417,0.18686500326023392,0.21112921436583637,-0.9828345059756901,2.4199802596557722,-4.63104248046875,3.30963134765625,32.847894736842115,0.013210421471588036,32.84,32.87,0.13559322033898305,0.000999999999999801,0,1,0
0,0.04217253235134328,0.002302682743113238,0.037842943846904606,0.05022790728770975,-0.04217251238615511,0.0023026816529843857,-0.050227883508971186,-0.03784292593141665,-2.9016932046745804e-05,1.5843674770458212e-06,-3.455945591494219e-05,-2.6037946237285214e-05,-2.9016932046745804e-05,1.5843674770458212e-06,-3.455945591494219e-05,-2.6037946237285214e-05,1.830340136054414,117.40302602408589,-376.37,197.15,1.554657487760088,0.037390289388996266,1.4969927159117848,1.6154596016023468,0.028841342212812388,0.009150851802574703,0.015474073556653907,0.043938981529889294,0.012600154284663002,0.05195020633776577,9.468828843228749e-08,0.22679634227623002,0.16686405221387232,0.011642819795191649,0.14717492605200533,0.1850414603461069,0.986133793151704,2.105036432410394,-3.15399169921875,4.29534912109375,32.87888888888889,0.00993807990000062,32.87,32.89,0.08163265306122448,-0.0006604747162023736,0,1,0
0,0.04245337052460415,0.0016785155670249123,0.03990710442037213,0.0488518002387314,-0.0424533504264625,0.0016785147723873339,-0.04885177711146513,-0.03990708552767574,-2.9210163558710805e-05,1.1549074582953169e-06,-3.3612621506313634e-05,-2.745819785022804e-05,-2.9210163558710805e-05,1.1549074582953169e-06,-3.3612621506313634e-05,-2.745819785022804e-05,-2.5749152542372884,43.432935662318,-137.22,134.0,1.5114738059461634,0.033786685445053456,1.4187281683225688,1.5554077440587273,0.046179598633124395,0.00802807874856548,0.02906263337975053,0.05642676282628243,0.03429469187112194,0.09082009375207258,4.7798481062066855e-08,0.3424961607206103,0.12415070951261095,0.012063801591553111,0.105458585208076,0.14475654108071617,-0.18331324196335103,2.154299677306548,-3.48052978515625,3.68804931640625,32.83947368421054,0.008254940600714878,32.83,32.87,0.10847457627118644,-0.0008596491228071207,0,1,0
0,0.03946544844181499,0.001042902648195785,0.036466836797926255,0.042659318518328826,-0.03946542975820585,0.0010429021544680784,-0.04265929832268786,-0.03646681953391059,-2.7154315185296602e-05,7.175721633681893e-07,-2.935186666748515e-05,-2.5091111828656657e-05,-2.7154315185296602e-05,7.175721633681893e-07,-2.935186666748515e-05,-2.5091111828656657e-05,6.537796610169494,195.8667730005617,-815.51,378.75,1.4405843645115077,0.01708803846601657,1.4209514499087736,1.4779083704914902,0.03427760230438712,0.011875460087835117,0.019713741657552658,0.051693514069617634,0.029191582210498643,0.0909160518879133,3.402834261034826e-07,0.3915734418794819,0.09363108647718006,0.005161120436980108,0.08693032194065581,0.10375315000164631,0.38220023576273077,1.423189841707049,-2.11944580078125,3.11737060546875,32.84000000000002,1.4210854715202004e-14,32.84,32.84,0.08135593220338982,0.0,0,1,0
0,0.03866673582180328,0.00027380721738725885,0.03853099737139378,0.039219050895882956,-0.0386667175163182,0.000273807087762303,-0.03921903232892271,-0.03853097913016968,-2.66047586723826e-05,1.8839384257610416e-07,-2.6984780645913764e-05,-2.651136344159949e-05,-2.66047586723826e-05,1.8839384257610416e-07,-2.6984780645913764e-05,-2.651136344159949e-05,-5.307142857142856,27.206848890134488,-56.12,132.05,1.4046612494921207,0.013353971092852223,1.3898355013442278,1.4361931692384278,0.019765690993343143,0.006831985257136981,0.011253274083424218,0.03548832608491024,0.005693028306677023,0.012472638149340349,4.2343689854451583e-07,0.0473442626781706,0.08499503062763974,0.0006533870203844068,0.08432363856337433,0.08653630906489929,-0.1076175320533014,1.4286007258678874,-2.42462158203125,2.618408203125,32.83444444444444,0.004969039950002075,32.83,32.84,0.10884353741496598,-0.0008255933952532604,0,1,0
0,0.0386058875509301,0.00029080277160511406,0.037842943846904606,0.039219050895882956,-0.038605869274251595,0.00029080263393417626,-0.03921903232892271,-0.03784292593141665,-2.656289184479019e-05,2.0008768248421594e-07,-2.6984780645913764e-05,-2.6037946237285214e-05,-2.656289184479019e-05,2.0008768248421594e-07,-2.6984780645913764e-05,-2.6037946237285214e-05,-1.5060338983050856,26.43147078124613,-69.87,81.56,1.3765759776588342,0.007563904856799551,1.361321421573874,1.3886328064323894,0.0049039326177317604,0.0028812774402655504,0.0013813895451796983,0.010611474203154255,7.841387198187281e-07,1.5393939095827388e-06,8.034542997928384e-08,6.559876486678107e-06,0.0824727626754274,0.0015996825982104495,0.07916323769149736,0.08427502174748325,-0.24528456089218556,1.3401156376521148,-2.28729248046875,2.45208740234375,32.82684210526315,0.010786263964167677,32.81,32.84,0.10847457627118644,-0.0016140350877192513,0,1,0
0,0.04042314456373894,0.0018113906803133312,0.037842943846904606,0.043347372042818,-0.04042312542674048,0.0018113898227704254,-0.04334735152144089,-0.03784292593141665,-2.7813260753463803e-05,1.2463325617458776e-06,-2.9825283871799426e-05,-2.6037946237285214e-05,-2.7813260753463803e-05,1.2463325617458776e-06,-2.9825283871799426e-05,-2.6037946237285214e-05,-2.0435932203389844,58.08253129817967,-161.48,184.07,1.3516441368697099,0.008439521629648308,1.3391174527423098,1.3723465876827938,0.0018428955099209483,0.0033937167037800605,0.0002121167939166671,0.013726933965398884,0.010785306129916093,0.04446662745643642,7.84410373565192e-08,0.19412590789743825,0.07318761073688997,0.0034454709420183795,0.0674311070355264,0.07861406392755277,-0.04136821996562791,1.5023423385229144,-2.58026123046875,2.740478515625,32.82666666666666,0.007453559924997816,32.81,32.83,0.10847457627118644,0.000928792569659258,0,1,0
0,0.04201339071982871,0.00018344272660920105,0.04197126499383966,0.043347372042818,-0.04201337082998086,0.00018344263976432102,-0.04334735152144089,-0.04197124512393483,-2.8907434189965726e-05,1.262182950775416e-07,-2.9825283871799426e-05,-2.8878449463170872e-05,-2.8907434189965726e-05,1.262182950775416e-07,-2.9825283871799426e-05,-2.8878449463170872e-05,2.2544745762711815,21.614834226110435,-83.45,54.45,1.358860280100612,0.007494393637633799,1.3461835011035723,1.375462809798143,0.015528146497064004,0.0016664021060302564,0.012075658389064624,0.017914013503630723,0.008044240212701824,0.012788257706733468,6.868079598376653e-07,0.03968381526930781,0.06142229977112469,0.0029851707327262795,0.05703382184140676,0.06675088380409766,0.029050386868990384,1.641405739549254,-2.83966064453125,3.00140380859375,32.8257894736842,0.011385951396201676,32.81,32.84,0.10847457627118644,0.0007017543859650469,0,1,0
0,0.041971264993839574,8.326672684688674e-17,0.04197126499383966,0.04197126499383966,-0.04197124512393475,8.326672684688674e-17,-0.04197124512393483,-0.04197124512393483,-2.8878449463170984e-05,1.1180834903756764e-19,-2.8878449463170872e-05,-2.8878449463170872e-05,-2.8878449463170984e-05,1.1180834903756764e-19,-2.8878449463170872e-05,-2.8878449463170872e-05,0.513129251700679,13.802381673741955,-35.37,28.27,1.3345019377259908,0.0065622412142824224,1.324017040975174,1.3456312076496162,0.00767573714567853,0.002814068043761195,0.003197057378657358,0.012064275191936718,0.0012514391869654007,0.0024988959080325087,1.770406994061613e-07,0.00982881657236298,0.054086364921380796,0.00150014052775039,0.05167636240806128,0.056671002239179646,0.10531451506886826,1.6956660403822534,-2.655029296875,3.326416015625,32.81888888888888,0.009938079899997088,32.81,32.83,0.10884353741496598,-0.0009907120743032085,0,1,0
0,0.041971264993839574,0.00038359265431566603,0.03990710442037213,0.043347372042818,-0.04197124512393476,0.00038359247271643363,-0.04334735152144089,-0.03990708552767574,-2.8878449463170963e-05,2.639320278701267e-07,-2.9825283871799426e-05,-2.745819785022804e-05,-2.8878449463170963e-05,2.639320278701267e-07,-2.9825283871799426e-05,-2.745819785022804e-05,0.10111864406779773,12.679490623737571,-36.15,21.21,1.311194943671812,0.006837850847225698,1.297776178375518,1.3222936332763868,0.001162632750408857,0.0007555490719322387,0.0003033718053599663,0.0028346734795348847,1.2541237374834934e-07,4.219733448163719e-08,9.40600804570646e-08,2.764824142287986e-07,0.04798085557240639,0.0023370955825631327,0.043663934543977434,0.051382883095848264,0.22660674291568123,1.812105608290701,-2.7008056640625,3.33099365234375,32.82263157894735,0.009647527778852479,32.81,32.83,0.10847457627118644,0.0002105263157894318,0,1,0
0,0.04294951796403172,0.001878621030644176,0.036466836797926255,0.04747569318975305,-0.04294949763100546,0.0018786201412732922,-0.04747567071395907,-0.03646681953391059,-2.9551539229849048e-05,1.2925905974449578e-06,-3.2665787097685084e-05,-2.5091111828656657e-05,-2.9551539229849048e-05,1.2925905974449578e-06,-3.2665787097685084e-05,-2.5091111828656657e-05,1.6927796610169457,46.70292225897349,-174.7,79.2,1.31770465967811,0.014382138788423588,1.2894703167072263,1.3425358541591617,0.014646181499356866,0.0061503921663156646,0.00026772640277757055,0.019394645738523845,0.01857014321419059,0.04071481882004739,2.0578034093388098e-07,0.1660357805010494,0.03741514914291461,0.0034715320617249245,0.03180157062254746,0.043050567057703604,0.08546768268960402,3.004484639021155,-4.52117919921875,4.72564697265625,32.82,0.00999999999999801,32.81,32.83,0.05423728813559322,0.0010113519091845254,0,1,0
0,0.04212933134406006,0.0012598389031843952,0.036466836797926255,0.04678763966526387,-0.04212931139932405,0.0012598383067554094,-0.04678761751520604,-0.03646681953391059,-2.8987207469567417e-05,8.668357768746607e-07,-3.219236989337081e-05,-2.5091111828656657e-05,-2.8987207469567417e-05,8.668357768746607e-07,-3.219236989337081e-05,-2.5091111828656657e-05,-4.63661016949153,225.96453718625224,-564.25,597.3,1.3011570098032024,0.01037623691268354,1.289143883335652,1.3283912424843278,0.015067470266895823,0.003759370872325896,0.008376350871112931,0.020115963698568124,0.0070782019687116015,0.020819429923343496,6.210075207957466e-07,0.09141609182046001,0.027426078951265007,0.0019164440848258946,0.0251852609516654,0.03119687466052934,0.1946444841338136,1.5493785838674121,-2.36358642578125,2.87628173828125,32.81777777777776,0.009749960430433751,32.81,32.83,0.13559322033898305,-0.00026831785345711895,0,1,0
0,0.04229890952931068,0.002177788924792683,0.03715489032241543,0.0460995861407747,-0.04229888950429348,0.002177787893790672,-0.046099564316453005,-0.037154872732663616,-2.910388622713004e-05,1.4984339265282959e-06,-3.1718952689056526e-05,-2.5564529032970932e-05,-2.910388622713004e-05,1.4984339265282959e-06,-3.1718952689056526e-05,-2.5564529032970932e-05,-0.0034353741496602197,83.7596961070162,-146.05,290.62,1.3075395723082766,0.0252063759371072,1.2833482474178295,1.3660044548628363,0.020621105333472126,0.008294776880621389,0.006790526377716875,0.03236393912939215,0.019535138773548028,0.06993593977183012,4.214155879811443e-08,0.3132515332258607,0.02690806561290102,0.0012961254368950438,0.025188056139073045,0.029089929853388874,-0.27981165213178294,1.44203528034457,-2.777099609375,2.21710205078125,32.8363157894737,0.007405919620774969,32.81,32.84,0.19047619047619047,0.00092982456140376,0,1,0
0,0.04351119431055345,0.0007500126226337277,0.04197126499383966,0.0460995861407747,-0.04351117371162022,0.0007500122675650977,-0.046099564316453005,-0.04197124512393483,-2.9938002253779042e-05,5.160483398021783e-07,-3.1718952689056526e-05,-2.8878449463170872e-05,-2.9938002253779042e-05,5.160483398021783e-07,-3.1718952689056526e-05,-2.8878449463170872e-05,4.324508474576266,66.79070177100616,-264.29,152.65,1.2914363811501681,0.009706827306508481,1.2746540453747557,1.3067856883272928,0.0077145476020917736,0.003751714920609659,0.002583515343847432,0.013566897259690949,6.925179573633958e-07,3.9500457429982584e-07,3.9706514892712264e-07,1.9602518150918513e-06,0.028193538592631556,0.0016768096178727664,0.024144335527316096,0.029610346878578553,0.23529592449532655,1.4425800577818857,-2.30865478515625,2.85797119140625,32.86666666666667,0.009428090415818756,32.84,32.87,0.16271186440677965,0.0009907120743032085,0,1,0
0,0.04245941107540296,0.0021241195277779826,0.03715489032241543,0.04747569318975305,-0.042459390974401476,0.002124118522183968,-0.04747567071395907,-0.037154872732663616,-2.92143197770425e-05,1.4615065437192381e-06,-3.2665787097685084e-05,-2.5564529032970932e-05,-2.92143197770425e-05,1.4615065437192381e-06,-3.2665787097685084e-05,-2.5564529032970932e-05,0.8111864406779659,35.677706977922895,-74.89,71.1,1.2676303787672352,0.008369135541453503,1.2545270681401555,1.2858384173165627,0.013063212910472872,0.009071461211800344,0.0018237270566914148,0.02449316651358314,0.03386154100167048,0.08440479937164073,5.972362486228455e-07,0.31826310873289926,0.008489801933853602,0.010145480066866977,-0.009551004015930675,0.023136771710111526,0.07760069210535243,1.5985870781394482,-2.70233154296875,3.11126708984375,32.86736842105264,0.02220528748392388,32.84,32.89,0.05423728813559322,-0.003754385964912082,0,1,0
0,0.04092748311655331,0.0025269280674229616,0.028898248028545334,0.04541153261628553,-0.04092746374079251,0.002526926871132592,-0.045411511117699976,-0.02889823434762726,-2.816027234370093e-05,1.7386601166977655e-06,-3.124553548474225e-05,-1.9883522581199616e-05,-2.816027234370093e-05,1.7386601166977655e-06,-3.124553548474225e-05,-1.9883522581199616e-05,0.19857627118644086,26.554788007223664,-66.98,66.84,1.2297581428133142,0.040763688867731025,1.1622491028279187,1.2943333840850713,0.02901746396114519,0.011271536672149956,0.011285049558781159,0.04459271332170144,2.940506097087736e-07,6.896870563133925e-07,6.774976668566524e-08,3.1141808137791216e-06,-0.02956937382203721,0.010266573455356844,-0.044926848173658884,-0.011794859800803859,0.14190531797820355,1.7668049223008637,-2.82440185546875,3.32794189453125,32.88277777777777,0.01325206715764078,32.84,32.89,0.05423728813559322,0.001867905056759651,0,1,0
0,0.03641534979949497,0.0021862830416812702,0.034402676224458736,0.05504428195913397,-0.03641533255985429,0.0021862820066579944,-0.055044255900242395,-0.0344026599376515,-2.5055686051462994e-05,1.5042783280572314e-06,-3.7873376345142124e-05,-2.367086021571383e-05,-2.5055686051462994e-05,1.5042783280572314e-06,-3.7873376345142124e-05,-2.367086021571383e-05,-2.502108843537414,47.835308021501895,-239.28,136.49,1.2001917046301247,0.02081508670225807,1.1627665469467656,1.2233664546892375,0.03139081786742804,0.012547857067571548,0.007799755738169538,0.042638161796887904,0.035504169401346555,0.09250574598030514,4.7301176303582437e-07,0.4039258957297162,-0.05027624438847911,0.001623454605945431,-0.05194868265349595,-0.046210997030892154,-0.4294161169463884,1.49986904629041,-2.7435302734375,2.593994140625,32.876666666666665,0.009428090415822108,32.87,32.89,0.10884353741496598,0.0,0,1,0
0,0.03575553822193394,0.00012431213615010658,0.035090729748947905,0.03577878327343708,-0.0357555212946592,0.00012431207729864387,-0.03577876633515756,-0.03509071313640453,-2.460170079987224e-05,8.553332242896561e-08,-2.461769462434238e-05,-2.4144277420028106e-05,-2.460170079987224e-05,8.553332242896561e-08,-2.461769462434238e-05,-2.4144277420028106e-05,0.5304406779661022,15.345374242854442,-37.36,31.72,1.200038222374732,0.004676196401192055,1.1917853821052662,1.2069701765920864,0.019557998742524046,0.008322344690170071,0.006949040372992225,0.032184289743899724,0.0029568629366889883,0.009345869125599897,9.937433881335167e-08,0.03926968146917764,-0.03962782250035903,0.005368461258988515,-0.04819745828913391,-0.031111866651726272,0.20692318899755738,1.5283914651325197,-2.42919921875,2.716064453125,32.93000000000001,0.017167901505580854,32.89,32.95,0.10847457627118644,0.0023508771929827113,0,1,0
0,0.03575538009233188,0.00012471941451822077,0.035090729748947905,0.03577878327343708,-0.035755363165132,0.00012471935547394566,-0.03577876633515756,-0.03509071313640453,-2.4601591998345236e-05,8.581355148026439e-08,-2.461769462434238e-05,-2.4144277420028106e-05,-2.4601591998345236e-05,8.581355148026439e-08,-2.461769462434238e-05,-2.4144277420028106e-05,-0.4094576271186433,12.343970670299795,-27.54,17.25,1.1854096907517464,0.0038691606189938128,1.1792645123557344,1.1919166363977836,0.0026112517933868018,0.0016209357200973314,0.0007400313877754996,0.006146564234636815,3.5509137070437874e-06,1.1510726294772842e-05,9.851809562588798e-08,5.0515898124710995e-05,-0.029147536401980187,0.0014493380729470704,-0.03264051901912435,-0.02760468927177817,0.38740280582192443,1.6830411750894148,-2.18353271484375,3.21807861328125,32.976666666666674,0.013333333333333839,32.95,32.99,0.10847457627118644,0.002311661506708073,0,1,0
0,0.03682016158077199,0.002570091303285069,0.03371462269996956,0.0460995861407747,-0.036820144149486506,0.0025700900865604933,-0.046099564316453005,-0.03371460673889847,-2.5334217960601843e-05,1.7683587051413987e-06,-3.1718952689056526e-05,-2.3197443011399553e-05,-2.5334217960601843e-05,1.7683587051413987e-06,-3.1718952689056526e-05,-2.3197443011399553e-05,-1.3359322033898309,27.976351885279158,-239.42,41.54,1.1704633758255119,0.008328278889264023,1.1405415798430236,1.178550589700925,0.007901160121255288,0.004362105801492718,0.0008350626702191924,0.013531547297152476,0.009009865593528427,0.012674979305107597,2.2560798956794414e-07,0.04559276244472546,-0.04589238412919411,0.008020333933074966,-0.05957576862024183,-0.03365439017454208,0.3713423205960181,2.0890912690930277,-2.61077880859375,4.608154296875,33.02789473684211,0.02418763219594908,32.99,33.07,0.10847457627118644,0.0037894736842104455,0,1,0
0,0.04003816223456055,0.001623742321394066,0.034402676224458736,0.04472347909179635,-0.04003814327981913,0.001623741552687063,-0.04472345791894695,-0.0344026599376515,-2.7548372555811716e-05,1.1172205692745448e-06,-3.0772118280427976e-05,-2.367086021571383e-05,-2.7548372555811716e-05,1.1172205692745448e-06,-3.0772118280427976e-05,-2.367086021571383e-05,0.3490816326530589,74.956918366895,-268.89,292.91,1.1798976454599517,0.04040281847318347,1.1167496029851423,1.2255899186132773,0.042075645948414016,0.0158794266016072,0.01232317532139153,0.06418721526757745,0.03598506551109789,0.10187396966068808,4.4861027226339445e-08,0.33697321925728874,-0.07214261296503853,0.006018352320171904,-0.0804921219922019,-0.06112811860294409,0.10978329566217238,2.253318091653804,-3.45611572265625,3.95965576171875,33.08000000000001,0.010000000000001563,33.07,33.09,0.10884353741496598,0.0016718266253872584,0,1,0
0,0.041339379104002615,0.000345290124777665,0.04059515794486131,0.042659318518328826,-0.04133935953324322,0.00034528996131149577,-0.04265929832268786,-0.04059513872642877,-2.8443678561249625e-05,2.3757786237768388e-07,-2.935186666748515e-05,-2.7931615054542318e-05,-2.8443678561249625e-05,2.3757786237768388e-07,-2.935186666748515e-05,-2.7931615054542318e-05,2.9320338983050833,12.855713572434558,-32.71,26.58,1.1204859898486441,0.005722313861232993,1.1123638722310027,1.1313960983015876,0.015548013984193605,0.0027287739452465246,0.011305293399570367,0.019369453246233206,0.00952381937524163,0.013554208126218435,6.528765697288996e-06,0.04078442109013736,-0.08346058953332491,0.0009847068480060952,-0.08428067090446545,-0.08106393934090905,0.010312461379739842,1.7494545323310775,-2.51007080078125,3.2257080078125,33.11526315789474,0.02325339161512963,33.09,33.15,0.10847457627118644,0.0023859649122805757,0,1,0
0,0.04133899959295767,0.00018781080995772733,0.041283211469350475,0.04197126499383966,-0.0413389800223779,0.00018781072104492215,-0.04197124512393483,-0.041283191925181796,-2.8443417437584802e-05,1.292237673750711e-07,-2.8878449463170872e-05,-2.8405032258856593e-05,-2.8443417437584802e-05,1.292237673750711e-07,-2.8878449463170872e-05,-2.8405032258856593e-05,-0.8563389830508459,9.13822766744404,-25.29,14.05,1.103052167265915,0.004881057406236156,1.0949842315147287,1.110788591721214,0.005054715794045112,0.0028302757104607962,0.0015428455497511534,0.010607771646342568,1.1291657786047547e-06,2.5452119394668583e-06,1.4355030016760528e-07,1.1227375092959235e-05,-0.0838218137232829,0.0001957409233655224,-0.08425133059111156,-0.0835929686338891,-0.7866196923843275,1.0287330137817583,-3.0853271484375,1.31378173828125,33.137777777777764,0.022498285257017386,33.11,33.18,0.13559322033898305,0.004045407636738747,0,1,0
0,0.04112875047405697,0.00030870916108145807,0.04059515794486131,0.04197126499383966,-0.04112873100301277,0.00030870901493333604,-0.04197124512393483,-0.04059513872642877,-2.8298754927275816e-05,2.1240822520877838e-07,-2.8878449463170872e-05,-2.7931615054542318e-05,-2.8298754927275816e-05,2.1240822520877838e-07,-2.8878449463170872e-05,-2.7931615054542318e-05,-0.6650340136054426,7.634401497388835,-17.71,14.27,1.0875805016352433,0.0038895053020586517,1.0798238935896185,1.0944370885914785,0.0005766866418986842,0.00035915394265684583,0.00016285494119422437,0.0013623165754729609,1.5541210027866522e-07,9.803230393919886e-09,1.4257666433592497e-07,1.8181277327894083e-07,-0.08741498453830554,0.0020789325016523108,-0.09116395371210362,-0.08445843995061753,0.36929393228762797,1.5214698109881748,-1.8707275390625,3.082275390625,33.17777777777778,0.019309052441093665,33.16,33.21,0.10884353741496598,0.0027244582043345856,0,1,0
0,0.04128321146935044,0.00013900780371017146,0.04059515794486131,0.04197126499383966,-0.04128319192518173,0.00013900773790153273,-0.04197124512393483,-0.04059513872642877,-2.8405032258856614e-05,9.564471871457213e-08,-2.8878449463170872e-05,-2.7931615054542318e-05,-2.8405032258856614e-05,9.564471871457213e-08,-2.8878449463170872e-05,-2.7931615054542318e-05,0.24867796610169468,6.817898723066299,-17.51,11.0,1.0721106874039485,0.004028793690134025,1.0649889875087508,1.077584705265752,5.857517054789548e-05,3.8125153692594355e-05,1.5552818071701407e-05,0.0001437228664321354,3.7280981384105043e-07,8.192839974370725e-08,2.0351618879640293e-07,4.605479339035235e-07,-0.09656143778015192,0.0029625595599985224,-0.10133506140283499,-0.09168570224550598,0.20257746315475728,1.9252023847107727,-2.87322998046875,3.28216552734375,33.2163157894737,0.020055325140269933,33.18,33.23,0.10847457627118644,0.0017894736842105443,0,1,0
0,0.041287860479651044,9.785034732372252e-05,0.04059515794486131,0.04197126499383966,-0.0412878409332814,9.785030099971748e-05,-0.04197124512393483,-0.04059513872642877,-2.8408231023750633e-05,6.73262126018022e-08,-2.8878449463170872e-05,-2.7931615054542318e-05,-2.8408231023750633e-05,6.73262126018022e-08,-2.8878449463170872e-05,-2.7931615054542318e-05,-0.41633898305084727,7.1355609915935485,-16.43,11.19,1.0579608087840002,0.003980115443887723,1.0511058122346704,1.0644062198441337,6.10317182323392e-06,3.5182001454715153e-06,2.031679206969086e-06,1.3787284123833326e-05,3.422927513983824e-07,2.8456540242884676e-08,3.0195272390857027e-07,4.0135432371291935e-07,-0.10565838955006174,0.00232721011818756,-0.1095313757625691,-0.1018187682435453,0.05362070091311472,1.7663303107549544,-2.65960693359375,3.44085693359375,33.238888888888894,0.01196703290474426,33.21,33.25,0.10847457627118644,4.12796697625237e-05,0,1,0
0,0.038367175103658266,0.007903231736101758,0.013761070489783492,0.061236763679536545,-0.03836715693999038,0.00790322799457854,-0.06123673468901967,-0.013761063975060599,-2.6398645059619906e-05,5.437841302144261e-06,-4.2134131183970615e-05,-9.468344086285531e-06,-2.6398645059619906e-05,5.437841302144261e-06,-4.2134131183970615e-05,-9.468344086285531e-06,0.8435593220338985,6.742912654042037,-14.75,14.27,1.0436861209387163,0.0034257406547273557,1.036087789673689,1.0504016151490274,0.0019666860245166336,0.0030715047245740957,1.1815544294396004e-06,0.010688708075632991,0.007530480723611685,0.02218370034237113,2.836420171514753e-07,0.09669493161240258,-0.11560594392561349,0.0037575105318168635,-0.12243433331784392,-0.11002833043359939,0.6547927856445312,2.5408249602802644,-2.81219482421875,6.08673095703125,33.241578947368424,0.009874559494366657,33.23,33.25,0.13559322033898305,0.0001403508771930044,0,1,0
0,0.037192335412183516,0.0033934063833673473,0.030274355077523685,0.04472347909179635,-0.03719231780470461,0.003393404776871526,-0.04472345791894695,-0.03027434074513332,-2.5590293234566285e-05,2.3348430113902653e-06,-3.0772118280427976e-05,-2.083035698982817e-05,-2.5590293234566285e-05,2.3348430113902653e-06,-3.0772118280427976e-05,-2.083035698982817e-05,-2.525306122448979,97.21619502205455,-286.28,350.83,1.0319341402303175,0.021725986689450708,1.0059998203103826,1.0766363744498888,0.012362143857345048,0.005112432649879968,0.005773565924059837,0.023141244412856476,0.02587602351129037,0.06790139657298744,4.5746864185680636e-08,0.2452706134765683,-0.13346206982067885,0.006577969133539319,-0.14480176684948398,-0.12339726332424894,-1.1041343064225342,4.094171782015346,-7.89947509765625,5.12847900390625,33.261111111111106,0.009938079900000618,33.25,33.27,0.10884353741496598,0.0003302373581011868,0,1,0
0,0.039753687080452266,0.0024442080465673336,0.033026569175480386,0.04541153261628553,-0.03975366826038622,0.0024442068894380145,-0.045411511117699976,-0.03302655354014544,-2.7352638608725557e-05,1.6817443686920208e-06,-3.124553548474225e-05,-2.2724025807085277e-05,-2.7352638608725557e-05,1.6817443686920208e-06,-3.124553548474225e-05,-2.2724025807085277e-05,2.012203389830505,35.321872652613514,-132.65,69.99,1.033921830705486,0.025138836746750264,1.0017568954013845,1.0816113002671606,0.039740473899479455,0.007897507505489718,0.027556526813889724,0.05298172818545412,0.023063255367382955,0.07349509033371204,1.0042568288071152e-07,0.32209009290987956,-0.15960795800093372,0.008084432902713297,-0.17268174655408064,-0.14626270535463226,1.2695066390498992,2.154049956253837,-1.37176513671875,9.12933349609375,33.25631578947368,0.009296590385609713,33.25,33.27,0.10847457627118644,0.00031578947368425986,0,1,0
0,0.039059909264368455,0.002870287342294632,0.033026569175480386,0.0460995861407747,-0.03905989077274856,0.0028702859834521875,-0.046099564316453005,-0.03302655354014544,-2.687528278913362e-05,1.9749094522502655e-06,-3.1718952689056526e-05,-2.2724025807085277e-05,-2.687528278913362e-05,1.9749094522502655e-06,-3.1718952689056526e-05,-2.2724025807085277e-05,-0.4164406779661011,27.74727856331517,-77.77,68.38,1.0004466514201509,0.026300828950177324,0.9723950183170166,1.0697055894346317,0.04344091306782189,0.010119267841258696,0.02743326624161335,0.05915074760323831,0.03923768953673026,0.09010655168139953,7.875773988530455e-08,0.3294303209464258,-0.18401819875633396,0.005649520414539071,-0.19245412705696785,-0.17404155137746558,-1.8689673101535835,7.930893981704791,-13.262939453125,12.06817626953125,33.25777777777777,0.009749960430437217,33.25,33.27,0.18983050847457628,0.0015892672858619616,0,1,0
0,0.035299935212474993,0.012488272334353111,0.0,0.07568588769380921,-0.03524413040369405,0.012644853359711546,-0.0756858518628333,0.00206415959625909,-2.4249836661530626e-05,8.700331801912529e-06,-5.207589247457043e-05,1.4202516129428298e-06,-2.4249836661530626e-05,8.700331801912529e-06,-5.207589247457043e-05,1.4202516129428298e-06,5.507830508474573,57.16256682010349,-291.39,122.03,0.9991755903653369,0.02900081018410221,0.9592646402656644,1.0669595626963626,0.053510564193639226,0.013674658068896414,0.03796585438108509,0.07691735663525479,0.04588608207169184,0.10194317845027631,7.11305521150507e-08,0.36774901087455725,-0.19740618525290574,0.0020274431711658054,-0.1995854671023094,-0.1932129813808784,0.8531500011210925,1.4949019149514469,-2.44293212890625,3.48968505859375,33.274444444444434,0.01571348402636705,33.25,33.29,0.16271186440677965,0.0003302373581011868,0,1,0
0,0.039350108710071406,0.004732620887038992,0.028898248028545334,0.059860656630558194,-0.03935009008106615,0.0047326186465364364,-0.05986062829151361,-0.02889823434762726,-2.7074955351497434e-05,3.2562933982276304e-06,-4.1187296775342064e-05,-1.9883522581199616e-05,-2.7074955351497434e-05,3.2562933982276304e-06,-4.1187296775342064e-05,-1.9883522581199616e-05,-5.662210884353729,153.64861431137564,-346.01,596.91,0.9969427702260645,0.0369479527046339,0.9385642349717858,1.0890974807546245,0.05642338749776027,0.011471647692918592,0.04095475381668594,0.0747225115019855,0.03523301164174278,0.09429982865024839,4.2157331403558373e-08,0.38948134933863954,-0.19612849039386338,0.0029287308899353364,-0.199544675917237,-0.19028805232028934,1.6660530031189438,2.899884251470491,-2.8106689453125,6.44073486328125,33.282631578947374,0.009647527778852482,33.27,33.29,0.13605442176870747,0.0014736842105260225,0,1,0
0,0.037679121579169104,0.0017879907834112674,0.034402676224458736,0.042659318518328826,-0.03767910374123734,0.0017879899369462704,-0.04265929832268786,-0.0344026599376515,-2.5925227855305648e-05,1.2302321954541089e-06,-2.935186666748515e-05,-2.367086021571383e-05,-2.5925227855305648e-05,1.2302321954541089e-06,-2.935186666748515e-05,-2.367086021571383e-05,1.538440677966101,33.58510806399482,-82.9,58.72,0.9759602483476795,0.005367200232719324,0.9668551743040882,0.986864261164678,0.025261495455408203,0.008594395960960018,0.011478605742618234,0.04079746515929446,0.006482985685670654,0.011045553739536402,1.0146410897582392e-07,0.030308734846401175,-0.18172402036731555,0.004569337528225627,-0.1894007904082472,-0.1746939489340128,-1.4958631685347503,1.5856060902169926,-4.20379638671875,3.204345703125,33.29,0.0,33.29,33.29,0.10847457627118644,0.0,0,1,0
0,0.028038181122933853,0.011740549715992834,0.011696909916315968,0.04816374671424223,-0.028038167849185988,0.01174054415781855,-0.0481637239127121,-0.01169690437880151,-1.929175107580677e-05,8.078118962888254e-06,-3.313920430199936e-05,-8.048092473342702e-06,-1.929175107580677e-05,8.078118962888254e-06,-3.313920430199936e-05,-8.048092473342702e-06,-0.5756610169491526,18.19108731723851,-47.72,43.9,0.986376614303024,0.03354499700597506,0.9513978701106441,1.0387877304861386,0.023092339040957085,0.017658735700338764,0.004344016775209576,0.04784993464483594,0.02668520438787999,0.08925026337580788,1.0225843330435858e-07,0.39853041988758126,-0.1722881185105832,0.001070915174587583,-0.17451622577901282,-0.17107187943124857,0.15394906548057538,0.9857766331268281,-1.38702392578125,2.301025390625,33.27210526315789,0.014355980733668767,33.25,33.29,0.10847457627118644,-0.0017192982456138177,0,1,0
0,0.014842297456837902,0.003921071519290826,0.003440267622445873,0.022705766308142764,-0.014842290430243932,0.003921069662989428,-0.022705755558849988,-0.0034402659937651497,-1.0212285407350826e-05,2.6979045241533417e-06,-1.5622767742371126e-05,-2.3670860215713828e-06,-1.0212285407350826e-05,2.6979045241533417e-06,-1.5622767742371126e-05,-2.3670860215713828e-06,0.35010169491525805,49.220074129137565,-124.01,155.67,0.9872805891003592,0.012319076655393574,0.9670947017805775,1.015723770858687,0.03533609443631357,0.004193632226816219,0.027990350270407027,0.042249844749892775,0.024386146344305963,0.06320818856697992,8.316922817108718e-08,0.20595052659264557,-0.18393282759635074,0.005622071944342137,-0.19335165650794128,-0.17528383888332577,0.17529853633794212,0.5849906265409347,-1.409912109375,0.87738037109375,33.269999999999996,7.105427357601002e-15,33.27,33.27,0.13559322033898305,0.0,0,1,0
0,0.011139914206015204,0.005281280304315958,0.0,0.022705766308142764,-0.011139908932191913,0.005281277804068776,-0.022705755558849988,0.0,-7.6648499746121e-06,3.6338000865928984e-06,-1.5622767742371126e-05,0.0,-7.6648499746121e-06,3.6338000865928984e-06,-1.5622767742371126e-05,0.0,-2.4752380952380957,89.72969687797935,-316.28,165.39,0.9603056389677482,0.029095307209079914,0.9157079434249268,1.01106723344596,0.03709060575183801,0.012691986408156827,0.018041713935685613,0.05548208010756407,0.02800697172119578,0.10169651307895196,5.0691729147622766e-08,0.4433871537959496,-0.20083236728146256,0.003131515461934802,-0.2040701536442585,-0.19442494145580236,0.5613525807118002,1.6045641457889772,-3.36761474609375,3.38897705078125,33.261111111111106,0.009938079900000618,33.25,33.27,0.13605442176870747,0.0,0,1,0
