,net_acc_mean,net_acc_std,net_acc_min,net_acc_max,ACC_x_mean,ACC_x_std,ACC_x_min,ACC_x_max,ACC_y_mean,ACC_y_std,ACC_y_min,ACC_y_max,ACC_z_mean,ACC_z_std,ACC_z_min,ACC_z_max,BVP_mean,BVP_std,BVP_min,BVP_max,EDA_mean,EDA_std,EDA_min,EDA_max,EDA_phasic_mean,EDA_phasic_std,EDA_phasic_min,EDA_phasic_max,EDA_smna_mean,EDA_smna_std,EDA_smna_min,EDA_smna_max,EDA_tonic_mean,EDA_tonic_std,EDA_tonic_min,EDA_tonic_max,Resp_mean,Resp_std,Resp_min,Resp_max,TEMP_mean,TEMP_std,TEMP_min,TEMP_max,BVP_peak_freq,TEMP_slope,0,1,2
0,0.027709366428407572,0.01305799527379955,0.0013761070489783493,0.05022790728770975,-0.0263051631087893,0.01569578713608479,-0.050227883508971186,0.01100885118004848,-1.809935162072269e-05,1.07995365459298e-05,-3.455945591494219e-05,7.574675269028425e-06,-1.809935162072269e-05,1.07995365459298e-05,-3.455945591494219e-05,7.574675269028425e-06,-11.239288135593226,78.96868602196456,-192.56,211.63,0.2194653382915095,0.004448137790790098,0.21279826602172328,0.22481422524759093,0.013683355530329091,0.005874193753933142,0.004969453112440606,0.021845410378447862,0.002317156027407093,0.009552985367485695,2.480403576976542e-08,0.04170512368666779,-0.38467781562084824,0.0011790122956186308,-0.38666685160387115,-0.3829165714457399,1.6078976197084431,2.1555479685469314,-2.40631103515625,5.42755126953125,32.643333333333324,0.018257418583504794,32.61,32.66,0.16271186440677965,0.0014035087719297212,0,1,0
0,0.031520289838085185,0.0005386435703775321,0.029586301553034506,0.03371462269996956,-0.03152027491584823,0.0005386433153745793,-0.03371460673889847,-0.029586287546380288,-2.1687625981424276e-05,3.706152561304165e-07,-2.3197443011399553e-05,-2.035693978551389e-05,-2.1687625981424276e-05,3.706152561304165e-07,-2.3197443011399553e-05,-2.035693978551389e-05,4.178203389830512,64.73418759736494,-133.18,116.74,0.21234132456992452,0.0012512001060757145,0.21082728574285153,0.21519260469251872,0.001792069201871014,0.001170492394199514,0.00046574132241764514,0.004394392931763866,1.5533051643817834e-07,9.945977913160852e-08,6.129279541550181e-08,3.9556478976729426e-07,-0.3826814054278243,0.000280556915442834,-0.38336696841567985,-0.3824027247167494,0.24830934131707505,2.2477871385593993,-3.40728759765625,4.14886474609375,32.663157894736834,0.009206766149756641,32.65,32.68,0.16271186440677965,8.771929824552179e-05,0,1,0
0,0.034458843859110924,0.005454770958986168,0.015137177538761842,0.05229206786117727,-0.03445882754571301,0.005454768376605585,-0.05229204310523028,-0.01513717037256666,-2.370950651810683e-05,3.753170829980345e-06,-3.5979707527885024e-05,-1.0415178494914085e-05,-2.370950651810683e-05,3.753170829980345e-06,-3.5979707527885024e-05,-1.0415178494914085e-05,-3.422074829931981,105.48887339582757,-312.0,327.54,0.20962568331428516,0.0017434146063283397,0.20457882173603228,0.21165005270100803,0.00017379443577414665,0.00010832681251317108,4.9054864468593885e-05,0.00041098807440997725,1.0307732725218155e-07,6.73046819914952e-08,4.3828753841512746e-08,2.4041445313358056e-07,-0.3853832772252983,0.001230887090131441,-0.3875225414927632,-0.3835307342465687,0.62205075626042,2.5295441427342293,-3.5003662109375,5.767822265625,32.667777777777765,0.009749960430437217,32.66,32.68,0.13605442176870747,0.000928792569659588,0,1,0
0,0.03432778604492253,0.00958654403959042,0.012384963440805145,0.08807085113461435,-0.03432776979356953,0.009586539501158765,-0.08807080944038784,-0.01238495757755454,-2.361933181252316e-05,6.5960491687445645e-06,-6.05974021522274e-05,-8.521509677656977e-06,-2.361933181252316e-05,6.5960491687445645e-06,-6.05974021522274e-05,-8.521509677656977e-06,2.5818305084745883,110.5960762385407,-357.28,213.82,0.20804439363940178,0.0015183967968072272,0.20434665333357982,0.20969547520283177,0.0019712218515812187,0.0009165964842405094,4.330181743249737e-05,0.0031081738061130714,0.0019654949006328907,0.005560614474336609,2.37221530335896e-08,0.018299559263028134,-0.39018768692973604,0.0014585142192276447,-0.39257634381616036,-0.3878001525412382,-1.2659047428880312,1.9113840547223984,-4.53643798828125,3.521728515625,32.71611111111112,0.02239516041193914,32.68,32.73,0.16271186440677965,0.0033539731682144637,0,1,0
0,0.023514694100447642,0.0012043359664080369,0.020641605734675238,0.026146033930588636,-0.023514682968194763,0.0012043353962550754,-0.02614602155261514,-0.020641595962590898,-1.6179352833929796e-05,8.28646821764802e-07,-1.7989853763942512e-05,-1.4202516129428297e-05,-1.6179352833929796e-05,8.28646821764802e-07,-1.7989853763942512e-05,-1.4202516129428297e-05,1.9456610169491535,40.211230830478684,-90.24,69.08,0.20223247514526235,0.0005397187953138447,0.2012093037551527,0.2031498455363424,0.0005618938164011192,0.0003006167053823477,0.00022452382747222658,0.001256389749550747,0.00020649226905518909,0.0008732543698213611,2.782454597977102e-08,0.003911392199609327,-0.39535686560645605,0.0015147450664070826,-0.39783239905050366,-0.39285657741917557,0.9304993205863252,1.3929261578800103,-1.96380615234375,3.04412841796875,32.77631578947369,0.02157252792833652,32.73,32.79,0.13559322033898305,0.0031578947368420753,0,1,0
0,0.030882837786255616,0.008059862582372408,0.012384963440805145,0.05229206786117727,-0.030882823165799274,0.008059858766697507,-0.05229204310523028,-0.01238495757755454,-2.1249025265752343e-05,5.545611605923872e-06,-3.5979707527885024e-05,-8.521509677656977e-06,-2.1249025265752343e-05,5.545611605923872e-06,-3.5979707527885024e-05,-8.521509677656977e-06,8.430644067796614,54.314292296970685,-132.39,131.99,0.20188696493580155,0.00243346039580607,0.19790037982257053,0.20670322625863957,0.003518755531175941,0.0024905473271713053,0.00047772188079236647,0.009189790836805399,0.006596308134450318,0.018979183730592944,5.0791106792624774e-08,0.0793052109956392,-0.40035607587380323,0.0013585820745825265,-0.4025458673531221,-0.39810341029819685,0.021015750744163047,2.1674825627498873,-3.07464599609375,3.75518798828125,32.80555555555556,0.008314794192832282,32.79,32.81,0.13559322033898305,-0.0001651186790505934,0,1,0
0,0.02949736946483524,0.009322257609180299,0.009632749342848445,0.04953985376322058,-0.02949735550028296,0.009322253195866296,-0.04953983031021816,-0.00963274478254242,-2.0295749806724974e-05,6.414206131001462e-06,-3.408603871062791e-05,-6.627840860399872e-06,-2.0295749806724974e-05,6.414206131001462e-06,-3.408603871062791e-05,-6.627840860399872e-06,-13.348163265306102,127.33792487013389,-467.49,160.9,0.19922116785935642,0.003902020133591482,0.19299028107813992,0.20598723970791377,0.005240785566306738,0.001952997531088483,0.002663837462305931,0.009085317156928473,0.0020736092658595745,0.006136005954293375,1.9692132230408887e-08,0.02294038109502966,-0.4047792386322966,0.0011486689371992208,-0.40654728701000686,-0.4027905100321572,-0.904605835907219,1.4592529917012254,-3.656005859375,1.28631591796875,32.82263157894737,0.009647527778852482,32.81,32.83,0.16326530612244897,0.0004912280701753408,0,1,0
0,0.02107396369263127,0.008400393697842285,0.00894469581835927,0.03990710442037213,-0.021073953715861373,0.00840038972095421,-0.03990708552767574,-0.00894469158378939,-1.4500001264571737e-05,5.779915018274614e-06,-2.745819785022804e-05,-6.154423656085595e-06,-1.4500001264571737e-05,5.779915018274614e-06,-2.745819785022804e-05,-6.154423656085595e-06,3.768203389830505,56.25240528334787,-117.89,145.15,0.1955321477413627,0.002590960566906953,0.1918752595526832,0.19933122822553315,0.002485970342079115,0.0011798028126585548,0.0009438551378210257,0.004746191629462464,0.002434816346732976,0.010037183435867032,2.890938803623566e-08,0.043819183513924546,-0.40773961930514074,0.0005408081320146098,-0.4084641428176551,-0.4067097154885291,0.17861210334534014,1.7840610759130848,-2.35748291015625,3.38897705078125,32.81666666666667,0.012472191289246945,32.81,32.84,0.05423728813559322,0.000990712074303443,0,1,0
0,0.03522178756313629,0.005513392116497841,0.024081873357121114,0.0516040143366881,-0.03522177088854793,0.005513389506365011,-0.05160398990647725,-0.02408186195635605,-2.4234452125611817e-05,3.7935052858258353e-06,-3.550629032357074e-05,-1.656960215099968e-05,-2.4234452125611817e-05,3.7935052858258353e-06,-3.550629032357074e-05,-1.656960215099968e-05,-0.341932203389832,63.745159321665824,-152.57,152.83,0.1961490225091646,0.0008454206752561309,0.19486195996146574,0.19769928836897532,0.0034713200088966386,0.0008907477253184238,0.0020893305501126364,0.004503843107453016,0.0012234787340359027,0.003450948188399435,4.616740513219142e-07,0.012224295988152646,-0.4087136427635327,9.065828083670674e-05,-0.40881372452212417,-0.4085107789434,0.6816673456346475,3.114155013598131,-3.69415283203125,6.96563720703125,32.82000000000001,0.00999999999999801,32.81,32.83,0.16271186440677965,0.0003508771929823863,0,1,0
0,0.04299404725997213,0.0010715741836513015,0.03853099737139378,0.04816374671424223,-0.04299402690586514,0.0010715736763500113,-0.0481637239127121,-0.03853097913016968,-2.9582177739854287e-05,7.372996957121677e-07,-3.313920430199936e-05,-2.651136344159949e-05,-2.9582177739854287e-05,7.372996957121677e-07,-3.313920430199936e-05,-2.651136344159949e-05,-0.8173220338983032,42.18988274514206,-97.89,63.64,0.19452798027374438,0.0008392273734835678,0.19277583677190627,0.19568770800374888,0.0012400919450202797,0.0006719006472689943,0.0003697098901430532,0.0024149166962144485,3.2916965103237617e-07,6.676689470338163e-07,3.018167837529062e-08,2.977227659288484e-06,-0.40897880799654257,0.00014482872858437515,-0.4092955518895167,-0.4088195501234335,-0.15785416065907065,1.337795212870806,-2.6031494140625,2.22625732421875,32.8321052631579,0.004076824574957263,32.83,32.84,0.10847457627118644,-0.0003157894736843721,0,1,0
0,0.043824796937361375,0.00037310278801465,0.042659318518328826,0.04472347909179635,-0.04382477618996352,0.0003731026113814956,-0.04472345791894695,-0.04265929832268786,-3.015377744213991e-05,2.56714445224146e-07,-3.0772118280427976e-05,-2.935186666748515e-05,-3.015377744213991e-05,2.56714445224146e-07,-3.0772118280427976e-05,-2.935186666748515e-05,-2.2329931972789114,39.31666903273834,-101.17,49.4,0.19182361412535565,0.000890765701049625,0.19004232343235,0.193318643642575,0.00013829816156073001,8.60886179770519e-05,3.9072288707893084e-05,0.0003265325700865589,3.766149679143552e-08,8.054475735353218e-09,2.7231090037396766e-08,5.133684453039432e-08,-0.41009947378706363,0.0005102285868855868,-0.41101979802878114,-0.4093571413059234,0.012842656365103521,1.1160600481557719,-2.28424072265625,2.18048095703125,32.82222222222222,0.01133115447464962,32.81,32.84,0.13605442176870747,0.0019814241486066516,0,1,0
0,0.04394649347910778,0.0002694518322567846,0.043347372042818,0.04472347909179635,-0.0439464726740967,0.00026945170469374154,-0.04472345791894695,-0.04334735152144089,-3.0237511097324733e-05,1.8539710732398515e-07,-3.0772118280427976e-05,-2.9825283871799426e-05,-3.0237511097324733e-05,1.8539710732398515e-07,-3.0772118280427976e-05,-2.9825283871799426e-05,3.1617966101694885,38.22790861544972,-93.18,53.81,0.19046224550676563,0.0009211434119754092,0.18850587179533587,0.1923010067066023,1.407547088031748e-05,9.128863371541106e-06,3.835196383881279e-06,3.448328888053685e-05,1.7673987189387656e-07,1.2099941176299028e-07,5.641996236654609e-08,4.5514734309054993e-07,-0.4125525985460677,0.0009063009509672366,-0.4141242169352273,-0.41115206064424054,0.2492062211332487,1.351332149804049,-3.41949462890625,1.89056396484375,32.833684210526314,0.004823763889429668,32.83,32.84,0.13559322033898305,0.0003157894736843721,0,1,0
0,0.04401218051580405,0.00021780997778192605,0.043347372042818,0.04472347909179635,-0.044012159679695594,0.0002178098746670079,-0.04472345791894695,-0.04334735152144089,-3.0282707251643554e-05,1.4986478098463114e-07,-3.0772118280427976e-05,-2.9825283871799426e-05,-3.0282707251643554e-05,1.4986478098463114e-07,-3.0772118280427976e-05,-2.9825283871799426e-05,0.5156271186440661,35.79627751970502,-77.29,47.25,0.18862312739842488,0.0009376271012404688,0.18691253050298606,0.19040069352128786,1.6444043248022341e-06,8.14922454931021e-07,7.311769813048911e-07,3.4338586023972955e-06,2.6939995087105845e-07,6.937234576648604e-08,1.5972050373071656e-07,3.7904131439524827e-07,-0.4160914307177235,0.0011026337409886448,-0.41792158052906675,-0.41431986876766774,0.11255901643218663,1.5097255024102414,-3.4454345703125,2.41851806640625,32.85333333333334,0.014907119849995633,32.84,32.87,0.13559322033898305,0.0009907120743032085,0,1,0
0,0.04396053538777082,0.00027950884686495065,0.042659318518328826,0.04472347909179635,-0.043960514576112046,0.00027950871454074676,-0.04472345791894695,-0.04265929832268786,-3.024717267292298e-05,1.923168651191083e-07,-3.0772118280427976e-05,-2.935186666748515e-05,-3.024717267292298e-05,1.923168651191083e-07,-3.0772118280427976e-05,-2.935186666748515e-05,-2.705627118644069,34.626014304863624,-75.78,51.15,0.18696543597703527,0.0008285675918494322,0.1852282559890077,0.18839891330204064,0.001080140101654781,0.0005079093892072781,6.821706391359794e-07,0.001590341340890693,0.0010863435391815241,0.0038973003792087475,2.5357096354941544e-08,0.017322594358608782,-0.42005562865181667,0.0011436284760031406,-0.4218849801225656,-0.41814049518878316,-0.20795400917677961,1.8218725138927392,-3.22113037109375,2.4993896484375,32.87263157894737,0.011164843913471905,32.84,32.89,0.13559322033898305,0.0012456140350877456,0,1,0
0,0.03593324426873061,0.006958168378958954,0.017201338112229368,0.04472347909179635,-0.03593322725732661,0.006958165084844674,-0.04472345791894695,-0.01720132996882575,-2.472397195592313e-05,4.7875877440790275e-06,-3.0772118280427976e-05,-1.1835430107856916e-05,-2.472397195592313e-05,4.7875877440790275e-06,-3.0772118280427976e-05,-1.1835430107856916e-05,2.5111224489795934,36.7430226672562,-82.78,66.05,0.18201945446178924,0.002240078875944443,0.17913535371686223,0.18667358356198782,0.00031345351946267865,0.00019097925199994479,9.00193833787815e-05,0.000723082694570021,7.004769272412485e-08,9.563417012038906e-08,1.774212960662519e-08,3.624405143340566e-07,-0.4234800168865425,0.0008132042322587884,-0.42473188842862036,-0.4220719367851563,0.016025988103142447,1.645152867518972,-3.09295654296875,2.91900634765625,32.87444444444444,0.00831479419283228,32.87,32.89,0.13605442176870747,0.0011558307533541539,0,1,0
0,0.024495635273874692,0.0008378930236884965,0.022017712783653588,0.027522140979566984,-0.024495623677227803,0.0008378926270158024,-0.027522127950121197,-0.02201770236009696,-1.6854292226567043e-05,5.765147022298041e-07,-1.8936688172571062e-05,-1.514935053805685e-05,-1.6854292226567043e-05,5.765147022298041e-07,-1.8936688172571062e-05,-1.514935053805685e-05,-0.05450847457627077,80.28514830898484,-156.03,219.12,0.18233375778505997,0.0004378761927913163,0.18155777242401203,0.18327238686634392,0.0004989802600743589,0.000511355855444869,4.83670933495891e-05,0.0018504135246342807,0.0013472238913748895,0.002821280642353233,3.054525921082456e-07,0.010482454645445914,-0.425719912783971,0.0004770916903548973,-0.42641181945437423,-0.42485682110442685,0.36504912960799335,1.9310392661363747,-3.19976806640625,3.7750244140625,32.88999999999999,7.105427357601002e-15,32.89,32.89,0.13559322033898305,0.0,0,1,0
0,0.022691724399479737,0.0008586639585764552,0.019953552210186066,0.02476992688161029,-0.022691713656834592,0.000858663552070454,-0.02476991515510908,-0.01995354276383787,-1.5613106166772864e-05,5.908062036547148e-07,-1.7043019355313955e-05,-1.372909892511402e-05,-1.5613106166772864e-05,5.908062036547148e-07,-1.7043019355313955e-05,-1.372909892511402e-05,-0.21796610169491337,43.92277170021672,-108.04,106.65,0.1819981200900064,0.0011924536056281746,0.1790008536477328,0.18371363084012374,0.0010889845810026562,0.0005596413048083421,0.00033642116569430647,0.0019666377931523704,1.672435209106038e-07,2.162256167459523e-07,4.652432754673197e-08,1.0120670855678915e-06,-0.42676129785903794,0.0001335565184621917,-0.4269032233039159,-0.42646878161184537,-0.056764209832506206,1.8456231569925674,-3.59039306640625,2.53448486328125,32.902631578947364,0.01617083315340691,32.89,32.93,0.13559322033898305,-7.017543859655206e-05,0,1,0
0,0.023660616097229786,0.001714646804957422,0.018577445161207715,0.028898248028545334,-0.02366060489589502,0.0017146459932147024,-0.02889823434762726,-0.018577436366331808,-1.6279754883052153e-05,1.179767660360442e-06,-1.9883522581199616e-05,-1.2782264516485466e-05,-1.6279754883052153e-05,1.179767660360442e-06,-1.9883522581199616e-05,-1.2782264516485466e-05,7.118197278911564,41.119287492526595,-84.3,125.89,0.1804632500495401,0.0017322236749438941,0.17747014341374323,0.1834398837793682,0.0001259552053889416,7.834031478060958e-05,3.570422260431515e-05,0.00029720051348203176,1.20456513362821e-07,1.5034264092316612e-07,2.7509339943151967e-08,5.955120243985104e-07,-0.4269209654899506,1.9767098258358578e-05,-0.4269741910985618,-0.426905628142341,-0.022709754205519152,1.3193077597456917,-2.18658447265625,2.65960693359375,32.90666666666665,0.007453559924997816,32.89,32.91,0.13605442176870747,0.000928792569659258,0,1,0
0,0.02397959513050789,0.0010860390562089475,0.022017712783653588,0.026146033930588636,-0.023979583778163012,0.0010860385420597375,-0.02614602155261514,-0.02201770236009696,-1.6499229323331364e-05,7.472522928332789e-07,-1.7989853763942512e-05,-1.514935053805685e-05,-1.6499229323331364e-05,7.472522928332789e-07,-1.7989853763942512e-05,-1.514935053805685e-05,-7.940474576271201,56.152560770909716,-106.65,119.13,0.1804913980787136,0.000927626673058778,0.17892304940558573,0.1819071763412205,1.289158434076766e-05,8.373520138164252e-06,3.421729151991061e-06,3.154116371188841e-05,9.698261137730821e-08,4.4436176549774045e-08,5.1608003499696055e-08,2.2483388986438988e-07,-0.4273550647876442,0.00028247901726662913,-0.4279009732929512,-0.4269916398053257,0.27697967832200876,1.2394443797197545,-2.17437744140625,2.05841064453125,32.89947368421051,0.009986139979477105,32.89,32.91,0.10847457627118644,0.0001052631578947159,0,1,0
0,0.02285086603099417,0.001144125970839825,0.021329659259164413,0.027522140979566984,-0.022850855213008805,0.0011441254291912897,-0.027522127950121197,-0.02132964916134393,-1.572260402355302e-05,7.872191613297499e-07,-1.8936688172571062e-05,-1.4675933333742575e-05,-1.572260402355302e-05,7.872191613297499e-07,-1.8936688172571062e-05,-1.4675933333742575e-05,1.020305084745761,34.08625682958875,-79.49,56.95,0.1798086761307888,0.0007926625962893502,0.17842145486438038,0.1810834581312792,1.3787790837992426e-06,7.691287829966758e-07,4.824354430733233e-07,3.041654677626583e-06,1.1010711089803322e-07,3.667101083537499e-08,8.19657186474836e-08,2.3067276679701381e-07,-0.4287467736911361,0.0004797766961574283,-0.4295417407730147,-0.4279817952359234,-0.05263501059886946,0.9892736226325118,-1.62200927734375,1.9989013671875,32.90333333333332,0.009428090415818758,32.89,32.91,0.10847457627118644,-0.0004953560371516042,0,1,0
0,0.02306374010128915,0.0019681243443284164,0.019953552210186066,0.028210194504056162,-0.023063729182525538,0.0019681234125851544,-0.02821018114887423,-0.01995354276383787,-1.5869072639210287e-05,1.354173609569945e-06,-1.941010537688534e-05,-1.372909892511402e-05,-1.5869072639210287e-05,1.354173609569945e-06,-1.941010537688534e-05,-1.372909892511402e-05,-1.2176610169491524,41.478106452297716,-78.28,70.14,0.17850666333648596,0.0011268909750971913,0.17558374868874457,0.17986132798195587,2.5574589812528697e-07,9.297534126611152e-08,1.330208026652344e-07,4.4149001874876074e-07,8.311548279229158e-08,3.842149338175911e-08,4.9244681445442844e-08,1.7357670440823738e-07,-0.43036775514606695,0.00041449979630140223,-0.43098854022510663,-0.42963446996481014,0.13807594924055908,1.3036301152270215,-2.32696533203125,1.91650390625,32.89736842105262,0.009647527778852482,32.89,32.91,0.13559322033898305,-0.0002105263157894318,0,1,0
0,0.021750916519055676,0.00044285843995624057,0.019953552210186066,0.022705766308142764,-0.02175090622180503,0.0004428582302995829,-0.022705755558849988,-0.01995354276383787,-1.4965780601690061e-05,3.047100219517334e-07,-1.5622767742371126e-05,-1.372909892511402e-05,-1.4965780601690061e-05,3.047100219517334e-07,-1.5622767742371126e-05,-1.372909892511402e-05,2.3214625850340145,40.765552170665025,-103.24,75.22,0.1774968530379871,0.0005932294150948413,0.17603818825306408,0.17857057133377513,9.024104479322415e-08,1.739109396342896e-08,6.863436138415458e-08,1.2612757564938577e-07,4.6667978981155987e-08,2.2021323722125648e-09,4.265154665136455e-08,4.948327108347901e-08,-0.4314510574233752,0.0002395180908073689,-0.43183663686364915,-0.43104329327403823,-0.14176759175568004,1.6661280376561238,-2.69927978515625,2.91290283203125,32.90444444444442,0.008958064164774383,32.89,32.91,0.13605442176870747,0.0006398348813208221,0,1,0
0,0.021821126062370907,0.0003210247715661049,0.020641605734675238,0.022017712783653588,-0.02182111573188185,0.00032102461958756164,-0.02201770236009696,-0.020641595962590898,-1.5014088479681319e-05,2.2088201638569662e-07,-1.514935053805685e-05,-1.4202516129428297e-05,-1.5014088479681319e-05,2.2088201638569662e-07,-1.514935053805685e-05,-1.4202516129428297e-05,-0.024237288135592693,34.690025392126856,-75.51,41.65,0.17682048641845396,0.0009765378985205203,0.17552924893193966,0.1790628204729946,8.692792706697451e-08,1.4860866046870451e-08,6.682224872938349e-08,1.0871523257281566e-07,8.957804538950682e-08,1.7164369939341962e-08,4.912149974800446e-08,1.1675944522965228e-07,-0.43234054317117726,0.00030294446873924493,-0.4328807408024036,-0.43188258127809986,0.030466920649676155,0.7236070213502938,-1.29547119140625,1.63726806640625,32.88999999999999,0.01333333333333305,32.87,32.91,0.13559322033898305,0.0013209494324045125,0,1,0
0,0.024700191727101205,0.0016734564459368441,0.022017712783653588,0.028210194504056162,-0.024700180033613843,0.0016734556536943332,-0.02821018114887423,-0.02201770236009696,-1.699503788190372e-05,1.1514265154957314e-06,-1.941010537688534e-05,-1.514935053805685e-05,-1.699503788190372e-05,1.1514265154957314e-06,-1.941010537688534e-05,-1.514935053805685e-05,-1.4640677966101685,33.139202250897824,-74.51,50.07,0.17660934894353703,0.0005304225750645224,0.1754316852132494,0.1774091206510596,0.0003244008106476955,0.00025443396065819067,1.114114579145754e-07,0.0006362252258579181,0.00036504479494376367,0.0015454066597628733,4.7834491072144825e-08,0.006921647055506661,-0.4338098679078041,0.0005587609091741548,-0.43479224189440613,-0.4329585462518336,0.1639841803841792,1.5069450964865756,-2.51007080078125,2.55889892578125,32.885789473684206,0.008153649149911627,32.87,32.89,0.13559322033898305,-0.00021052631578950657,0,1,0
0,0.023445306831063162,0.0012564348208779154,0.018577445161207715,0.025457980406099465,-0.023445295731659332,0.001256434226060478,-0.02545796835386211,-0.018577436366331808,-1.6131610723878992e-05,8.644935882636988e-07,-1.7516436559628233e-05,-1.2782264516485466e-05,-1.6131610723878992e-05,8.644935882636988e-07,-1.7516436559628233e-05,-1.2782264516485466e-05,-1.709288135593219,39.717738979739785,-106.73,64.74,0.17434690647453246,0.0014166865181847726,0.1725422069405832,0.17738332509269752,0.000141688980991661,8.597163538609769e-05,4.1016959922121535e-05,0.00032571937174457553,2.4378250167412927e-07,1.719240750959865e-07,3.8348201543067506e-08,5.007544933560964e-07,-0.43614176437878405,0.0007852323187299034,-0.4374902907220758,-0.4349188707611303,0.4823656878114819,1.2649065588279886,-1.66015625,2.90374755859375,32.88999999999999,0.01333333333333305,32.87,32.91,0.10847457627118644,0.0019814241486067106,0,1,0
0,0.02125476907962817,0.001568858215241025,0.017201338112229368,0.023393819832631935,-0.021254759017261968,0.0015688574725170805,-0.02339380875760302,-0.01720132996882575,-1.4624404930551925e-05,1.0794574023529722e-06,-1.6096184946685404e-05,-1.1835430107856916e-05,-1.4624404930551925e-05,1.0794574023529722e-06,-1.6096184946685404e-05,-1.1835430107856916e-05,4.275000000000002,35.54027351226395,-74.46,102.76,0.1724833860898303,0.001512258427259265,0.1698108036742414,0.17480528519543775,1.4821424094076757e-05,9.645184349327866e-06,3.880376279785436e-06,3.625805541923781e-05,5.186121044878987e-08,5.546658766775806e-08,2.2436590233103413e-08,2.4845823832792685e-07,-0.4393261290945365,0.0010162632163441343,-0.4409849926572874,-0.43766653159306923,-0.8813178483829942,1.0889948091303596,-2.51007080078125,2.020263671875,32.89315789473683,0.007292845505551717,32.89,32.91,0.13605442176870747,0.0008421052631577272,0,1,0
0,0.02315207129700056,0.002203375858724962,0.019953552210186066,0.028210194504056162,-0.02315206033641954,0.002203374815609661,-0.02821018114887423,-0.01995354276383787,-1.592984917219662e-05,1.5160390899320969e-06,-1.941010537688534e-05,-1.372909892511402e-05,-1.592984917219662e-05,1.5160390899320969e-06,-1.941010537688534e-05,-1.372909892511402e-05,-3.5575932203389855,56.42193388832871,-114.8,103.91,0.1697663823672683,0.0014335540023500725,0.16645115230085059,0.1715536825303481,0.0004743644841567284,0.00042619143914046946,1.6539901182885927e-06,0.001005190542083743,0.0006082297600950052,0.002506039537707544,2.877556854233819e-08,0.010940895050693681,-0.4424594446231982,0.000733352617635975,-0.4435386551311294,-0.4411609601001316,0.6267248160196246,0.9994782030125813,-1.86004638671875,2.06451416015625,32.8911111111111,0.014098419489387915,32.87,32.91,0.08135593220338982,-0.0016718266253870162,0,1,0
0,0.0218585711521391,0.001073958695737764,0.019953552210186066,0.023393819832631935,-0.02185856080392281,0.0010739581873076014,-0.02339380875760302,-0.01995354276383787,-1.5039852681276646e-05,7.389403661040011e-07,-1.6096184946685404e-05,-1.372909892511402e-05,-1.5039852681276646e-05,7.389403661040011e-07,-1.6096184946685404e-05,-1.372909892511402e-05,0.11793220338982804,34.25003747807644,-73.77,55.5,0.16998410401635414,0.000595659654779598,0.16898797332119356,0.17097570780330376,0.0010147495451452914,0.00044237839893852945,0.00039459567608506296,0.0016181539576435185,0.0008650142249489046,0.002962133995171832,1.6576216789465636e-07,0.012797479569519345,-0.4440394280806164,0.0001861682546575197,-0.4442313754711966,-0.4436275578914934,-0.07998341919286185,1.2271709460968605,-2.03704833984375,2.44293212890625,32.89444444444443,0.008314794192829326,32.89,32.91,0.13559322033898305,0.0,0,1,0
0,0.022101394969064384,0.0006343812622961992,0.020641605734675238,0.023393819832631935,-0.022101384505891265,0.0006343809619694089,-0.02339380875760302,-0.020641595962590898,-1.5206928306149112e-05,4.364878501110755e-07,-1.6096184946685404e-05,-1.4202516129428297e-05,-1.5206928306149112e-05,4.364878501110755e-07,-1.6096184946685404e-05,-1.4202516129428297e-05,-0.36471186440677794,31.77498882905343,-74.33,46.93,0.16938223487494508,0.0006170765318253555,0.1685192699518574,0.17040808380138595,0.0003669000475665029,0.00023386023207148905,9.72505079996252e-05,0.000875052586067929,8.295340495434428e-08,2.2963272187127835e-08,4.733467714947322e-08,1.3296209877555754e-07,-0.4442618514766437,4.5375783659720556e-05,-0.44438523882861714,-0.44423006179525326,0.580627214228249,1.5171947727519954,-1.95770263671875,3.59344482421875,32.908947368421046,0.013724636642531457,32.89,32.93,0.13559322033898305,-0.00024561403508759565,0,1,0
0,0.022626195492385523,0.0004782959830861553,0.022017712783653588,0.023393819832631935,-0.02262618478076288,0.0004782957566527705,-0.02339380875760302,-0.02201770236009696,-1.556801881398103e-05,3.290929253149393e-07,-1.6096184946685404e-05,-1.514935053805685e-05,-1.556801881398103e-05,3.290929253149393e-07,-1.6096184946685404e-05,-1.514935053805685e-05,0.13462585034013652,34.6036402035422,-78.97,56.76,0.1680423622671057,0.0008822248986676252,0.16617900816975223,0.16909966506824353,3.6317682358166584e-05,2.2615801793881647e-05,1.0279372068260002e-05,8.583194436575805e-05,4.229889163927044e-08,5.144174801367539e-09,3.55989557125104e-08,5.2824551572262617e-08,-0.4450697398177059,0.00048247830976144,-0.44597378201031973,-0.44442287821958815,-0.5153954176985597,1.0222505838725644,-2.459716796875,1.446533203125,32.905555555555544,0.01571348402636705,32.89,32.93,0.13605442176870747,-0.0004953560371516629,0,1,0
0,0.02275725330657388,0.0010280578207580203,0.022017712783653588,0.026834087455077812,-0.022757242532906407,0.001028057334058109,-0.02683407475136817,-0.02201770236009696,-1.56581935195647e-05,7.073581372001933e-07,-1.8463270968256787e-05,-1.514935053805685e-05,-1.56581935195647e-05,7.073581372001933e-07,-1.8463270968256787e-05,-1.514935053805685e-05,4.534644067796614,46.6427147775777,-102.38,71.99,0.16626315119140384,0.0009568190148754457,0.16477853931783332,0.16817842841071157,3.7387500952534886e-06,2.3856806238500204e-06,1.0638439075095666e-06,9.076898244720831e-06,9.476065885511675e-08,3.65263039804549e-08,4.5871622559207374e-08,1.7626498850583532e-07,-0.44746429406610416,0.0008468837190810504,-0.4488710696649207,-0.44610938271425393,0.3246122790921119,1.1977228625052077,-2.23846435546875,2.288818359375,32.88999999999999,7.105427357601002e-15,32.89,32.89,0.13559322033898305,0.0,0,1,0
0,0.023449607956239203,0.00040400942717419303,0.022017712783653588,0.02476992688161029,-0.023449596854799262,0.0004040092359093158,-0.02476991515510908,-0.02201770236009696,-1.6134570125413535e-05,2.779798470931717e-07,-1.7043019355313955e-05,-1.514935053805685e-05,-1.6134570125413535e-05,2.779798470931717e-07,-1.7043019355313955e-05,-1.514935053805685e-05,-5.503254237288138,35.26602755117804,-96.17,51.64,0.16499934972613842,0.0008829084538351695,0.16382881462913632,0.16696535146961974,5.360471841573242e-07,1.7704711377192653e-07,3.8933386703102476e-07,9.60147111581988e-07,2.0331984461211608e-07,1.5104496400453437e-07,9.469643527568636e-08,6.054247115428716e-07,-0.45021313696418613,0.0006860452642523268,-0.45126969745940887,-0.449025992343215,-0.19561360424585014,0.8649673619879518,-1.91650390625,1.44195556640625,32.88999999999999,7.105427357601002e-15,32.89,32.89,0.13559322033898305,0.0,0,1,0
0,0.023159788021581265,0.00034516320320572937,0.022705766308142764,0.024081873357121114,-0.023159777057346887,0.0003451630397996493,-0.02408186195635605,-0.022705755558849988,-1.5935158686714548e-05,2.3749053362546805e-07,-1.656960215099968e-05,-1.5622767742371126e-05,-1.5935158686714548e-05,2.3749053362546805e-07,-1.656960215099968e-05,-1.5622767742371126e-05,2.864338983050844,34.87388057840645,-83.12,41.62,0.16337689833766908,0.0013485286480987991,0.16014213703590902,0.16552160718211925,2.144299085274226e-07,7.86889200276382e-08,1.2916326376746466e-07,3.711422774689003e-07,6.869463936356508e-08,1.857134422713416e-08,3.982608991566814e-08,9.911032583015974e-08,-0.45223235935386197,0.0004978100086331341,-0.4530200681153125,-0.45137684368127157,0.5148199000962023,0.9165246580857965,-1.52740478515625,2.00347900390625,32.89842105263157,0.00987455949436315,32.89,32.91,0.10847457627118644,-0.0007017543859647727,0,1,0
0,0.022738530761689912,0.00014652709075391458,0.022705766308142764,0.023393819832631935,-0.022738519996885795,0.00014652702138551887,-0.02339380875760302,-0.022705755558849988,-1.5645311418767042e-05,1.0081838576806044e-07,-1.6096184946685404e-05,-1.5622767742371126e-05,-1.5645311418767042e-05,1.0081838576806044e-07,-1.6096184946685404e-05,-1.5622767742371126e-05,-2.4288435374149664,35.694000582369,-81.43,44.59,0.16214864764299453,0.000838905643817858,0.16024224320841052,0.16363789247298277,9.878648256094882e-08,1.7080729945862477e-08,7.543119167019219e-08,1.265651800714576e-07,5.5947772287200774e-08,1.4357805593669186e-08,4.281589452690033e-08,9.93989900008843e-08,-0.4538020331215469,0.00043195697723912344,-0.4545204887873905,-0.4531019529389074,-0.07025527007526558,0.8846996382770899,-1.93328857421875,1.64031982421875,32.9011111111111,0.009938079899997088,32.89,32.91,0.10884353741496598,0.00033023735810106946,0,1,0
0,0.021227381032551184,0.0014068307688880808,0.01926549868569689,0.02476992688161029,-0.021227370983150935,0.0014068301028706636,-0.02476991515510908,-0.01926548956508484,-1.4605560506074248e-05,9.67973952382215e-07,-1.7043019355313955e-05,-1.3255681720799745e-05,-1.4605560506074248e-05,9.67973952382215e-07,-1.7043019355313955e-05,-1.3255681720799745e-05,3.280000000000003,34.38452076842976,-106.34,51.96,0.16126786223247225,0.0011124548346110325,0.1592213227042415,0.1635345445272091,1.5538651892436765e-07,3.92074683294345e-08,7.760968468562408e-08,1.986636321311343e-07,1.4780152126465e-07,7.6467749142426e-08,6.268720418028631e-08,2.6762007830157314e-07,-0.45535010934195125,0.00045053817583339646,-0.45608004943592395,-0.4546078443502758,-0.21416560263874884,0.9242293898010698,-1.8463134765625,1.605224609375,32.90555555555554,0.008314794192829326,32.89,32.91,0.10847457627118644,-0.0004953560371516042,0,1,0
0,0.019948871573965066,0.0006927025340678221,0.01788939163671854,0.021329659259164413,-0.01994886212983273,0.0006927022061307591,-0.02132964916134393,-0.01788938316757878,-1.3725878399914622e-05,4.7661596871154905e-07,-1.4675933333742575e-05,-1.230884731217119e-05,-1.3725878399914622e-05,4.7661596871154905e-07,-1.4675933333742575e-05,-1.230884731217119e-05,-2.6838983050847496,36.06004454987279,-87.11,45.36,0.16009572446558765,0.0005108669283795198,0.15916016138274813,0.16097100757560898,1.1478509768423005e-07,1.5975127056653517e-08,1.0128008878348207e-07,1.5241020772145352e-07,7.404026746236018e-08,1.3700080582441696e-08,5.6662820722137137e-08,9.96842002956191e-08,-0.45683952618070167,0.0003927822701472797,-0.45744814359682784,-0.4561625112894273,0.27094478938478983,0.7955466672036929,-1.56402587890625,1.715087890625,32.902631578947364,0.016170833153406908,32.89,32.93,0.13559322033898305,-0.0009122807017543789,0,1,0
0,0.02059011873624406,0.00019803019018806538,0.019953552210186066,0.021329659259164413,-0.020590108988534517,0.00019803009643723252,-0.02132964916134393,-0.01995354276383787,-1.4167090352234722e-05,1.3625524130300952e-07,-1.4675933333742575e-05,-1.372909892511402e-05,-1.4167090352234722e-05,1.3625524130300952e-07,-1.4675933333742575e-05,-1.372909892511402e-05,1.9337414965986386,35.90279117133318,-81.55,44.25,0.15934800108886882,0.0007854366890702813,0.15786181431887136,0.16091791391870164,1.1471163766959984e-07,9.855252293419779e-09,9.814832747001974e-08,1.2848760753698004e-07,8.234444562598092e-08,3.087766278285481e-08,5.195293489283439e-08,1.4213390312038259e-07,-0.45796684193245185,0.0002771389180392083,-0.4584222119456788,-0.45750632087397175,-0.012811419389975574,0.9602417941590178,-1.86004638671875,1.568603515625,32.8911111111111,0.0045812284729076,32.89,32.91,0.10884353741496598,0.0003508771929823863,0,1,0
0,0.020520731466859565,0.000273778949548857,0.019953552210186066,0.021329659259164413,-0.020520721751999132,0.0002737788199372846,-0.02132964916134393,-0.01995354276383787,-1.4119348242183904e-05,1.8837439280867896e-07,-1.4675933333742575e-05,-1.372909892511402e-05,-1.4119348242183904e-05,1.8837439280867896e-07,-1.4675933333742575e-05,-1.372909892511402e-05,-1.105627118644066,39.66026995724182,-84.14,49.8,0.15855806897650246,0.0008003506199435787,0.15731572738691044,0.1599073501816092,8.175389341819949e-08,8.588609403919608e-09,6.974296429510482e-08,9.683702627985604e-08,5.1577630082114995e-08,4.6820767506583e-09,4.479537309996495e-08,6.331825569677622e-08,-0.4590716241496965,0.0003904039251811025,-0.4597676515709649,-0.45847834395485454,0.05853856467727396,0.817876552530499,-1.46331787109375,1.702880859375,32.89315789473683,0.007292845505551718,32.89,32.91,0.13559322033898305,-0.0008421052631577272,0,1,0
0,0.020566715555138983,0.00021428932075249238,0.019953552210186066,0.020641605734675238,-0.020566705818508897,0.00021428921930431437,-0.020641595962590898,-0.01995354276383787,-1.4150987726237638e-05,1.474423828006235e-07,-1.4202516129428297e-05,-1.372909892511402e-05,-1.4150987726237638e-05,1.474423828006235e-07,-1.4202516129428297e-05,-1.372909892511402e-05,0.7245084745762717,44.33465379509896,-131.64,71.55,0.15747723631878663,0.0008496483320390845,0.15574143055958217,0.15953886246347102,1.80370273285548e-07,9.292716591586726e-08,6.954718178531624e-08,3.1800857673106487e-07,2.5585103949968084e-07,1.294130648859562e-07,6.283229304553606e-08,5.959699962709446e-07,-0.46074270914807935,0.0005488921321143436,-0.46164402647277925,-0.45986171007935867,0.05164079846634541,0.8799665767260207,-2.29644775390625,1.39007568359375,32.89666666666665,0.016329931618553846,32.87,32.91,0.13559322033898305,0.0028070175438595015,0,1,0
0,0.021292467176759526,0.0006337677076568483,0.019953552210186066,0.022705766308142764,-0.02129245709654652,0.0006337674076205244,-0.022705755558849988,-0.01995354276383787,-1.4650343214590439e-05,4.3606569207871695e-07,-1.5622767742371126e-05,-1.372909892511402e-05,-1.4650343214590439e-05,4.3606569207871695e-07,-1.5622767742371126e-05,-1.372909892511402e-05,-0.046406779661018194,36.56845310758971,-93.08,42.49,0.15702885329572297,0.0011578864427087374,0.15465860208500293,0.15875049141096942,0.0005746515013034934,0.0003664465790644689,3.2053239940525025e-07,0.0010206979811578235,0.0005864862153786017,0.0023411144607307244,3.474471957712333e-08,0.010500579254815089,-0.4624967880814445,0.00040511706189621654,-0.4630468257525908,-0.4617461525239883,0.13648097035902607,1.4261584279041666,-2.35748291015625,2.6519775390625,32.8878947368421,0.011040093138633404,32.87,32.91,0.10847457627118644,-0.0003859649122805502,0,1,0
0,0.022148770597841986,0.00036189521795862054,0.020641605734675238,0.024081873357121114,-0.022148760112240408,0.0003618950466313196,-0.02408186195635605,-0.020641595962590898,-1.5239525243640501e-05,2.490030444475562e-07,-1.656960215099968e-05,-1.4202516129428297e-05,-1.5239525243640501e-05,2.490030444475562e-07,-1.656960215099968e-05,-1.4202516129428297e-05,-1.818979591836735,36.65953166945907,-81.96,47.93,0.15543237478682675,0.0014829128052269859,0.1520332645041194,0.15770638685592708,0.00017733864693855703,0.00010885653513598577,5.064863187412066e-05,0.0004124425024261358,5.0231063110122236e-08,2.9246418015407407e-08,2.4751743232277745e-08,1.4268810886541947e-07,-0.4630132417675629,0.0001116010073146846,-0.4631206768829942,-0.4627681600598333,0.09890762215512562,0.9798042678767753,-2.42156982421875,1.62506103515625,32.8911111111111,0.012422599874998372,32.87,32.91,0.13605442176870747,-0.0015892672858617268,0,1,0
0,0.020459060922055638,0.002307036165518128,0.015825231063251018,0.028210194504056162,-0.02045905123639113,0.00230703507332829,-0.02821018114887423,-0.01582522357131969,-1.4076915646651063e-05,1.5873628618389619e-06,-1.941010537688534e-05,-1.088859569922836e-05,-1.4076915646651063e-05,1.5873628618389619e-06,-1.941010537688534e-05,-1.088859569922836e-05,2.016406779661016,44.3063999505748,-112.1,86.64,0.1564816833647825,0.0009643256850948035,0.1548690414366611,0.15795012671903025,1.9182131454115368e-05,1.1697433377957468e-05,5.578784791111406e-06,4.471013028564787e-05,3.065876640830418e-07,4.828499091299918e-07,6.936834726328344e-08,2.0400202081926775e-06,-0.4623607686520418,0.0002032340881863288,-0.4627230205156264,-0.4620839514008997,-0.2654868329196401,2.794553011970205,-4.4036865234375,4.8095703125,32.88555555555555,0.010657403385140138,32.87,32.91,0.13559322033898305,-0.00028895768833866315,0,1,0
0,0.02014416163251074,0.0016640274986739311,0.018577445161207715,0.023393819832631935,-0.02014415209592488,0.0016640267108952425,-0.02339380875760302,-0.018577436366331808,-1.3860248285768631e-05,1.1449389012419552e-06,-1.6096184946685404e-05,-1.2782264516485466e-05,-1.3860248285768631e-05,1.1449389012419552e-06,-1.6096184946685404e-05,-1.2782264516485466e-05,-1.2682711864406786,36.09108759031628,-105.21,46.3,0.15645859235995488,0.0004908581601815186,0.15555179288708643,0.1570754460608722,2.081748681043592e-06,1.2768716062532012e-06,6.633480369196552e-07,4.93851176235062e-06,1.1243542780499214e-07,4.130931693990754e-08,7.953016221061112e-08,2.108204668925492e-07,-0.4623148533379177,0.0002475264363149857,-0.4628343605324724,-0.46206569858671726,0.1470414343897817,1.2318445714119666,-3.03802490234375,1.82037353515625,32.9015789473684,0.009874559494363151,32.89,32.91,0.13559322033898305,0.00014035087719295453,0,1,0
0,0.02199430960254849,0.0006186235953404564,0.021329659259164413,0.02476992688161029,-0.021994299190071363,0.0006186233024736107,-0.02476991515510908,-0.02132964916134393,-1.5133247912059739e-05,4.256457420901308e-07,-1.7043019355313955e-05,-1.4675933333742575e-05,-1.5133247912059739e-05,4.256457420901308e-07,-1.7043019355313955e-05,-1.4675933333742575e-05,1.4187796610169487,35.21594213145076,-90.11,50.48,0.15558110757995378,0.0009744580799917597,0.15382306721180333,0.15715773885312037,3.074287641688027e-07,1.4069320420572869e-07,1.3895363386367053e-07,6.04445714219452e-07,5.3688909255750236e-08,8.232394355005382e-09,4.086450329981619e-08,6.7707001936636e-08,-0.463765309230974,0.0005316910222319594,-0.46464527816425216,-0.46292120462202574,0.2716088124842441,0.9944740370609833,-1.45263671875,2.09503173828125,32.88777777777777,0.0062853936105480715,32.87,32.89,0.10847457627118644,-0.0006604747162023736,0,1,0
0,0.02196154514900135,0.00031607293584970126,0.021329659259164413,0.022705766308142764,-0.021961534752035522,0.00031607278621544077,-0.022705755558849988,-0.02132964916134393,-1.5110704235663833e-05,2.1747489159431612e-07,-1.5622767742371126e-05,-1.4675933333742575e-05,-1.5110704235663833e-05,2.1747489159431612e-07,-1.5622767742371126e-05,-1.4675933333742575e-05,-2.292108843537417,42.06374126116354,-113.91,56.96,0.15366911836787836,0.0013766485463347193,0.1510336609462778,0.156353119152727,1.0012692302774314e-07,1.7945906474653273e-08,8.067199966024523e-08,1.4585097563168667e-07,1.5805498939112157e-07,2.5251714822883693e-07,3.7469760727303206e-08,1.1437302763946054e-06,-0.465499082599909,0.00041231277274000563,-0.46609401234256953,-0.4647463625002306,-0.21467578503512597,1.4683053704689795,-2.56500244140625,2.471923828125,32.89210526315789,0.017038330585513888,32.87,32.91,0.10884353741496598,0.00038596491228071216,0,1,0
0,0.02188754049523665,0.0006896850262450146,0.019953552210186066,0.024081873357121114,-0.021887530133305855,0.0006896846997364893,-0.02408186195635605,-0.01995354276383787,-1.5059785121024408e-05,4.7453976378471403e-07,-1.656960215099968e-05,-1.372909892511402e-05,-1.5059785121024408e-05,4.7453976378471403e-07,-1.656960215099968e-05,-1.372909892511402e-05,2.2535932203389812,30.717455380530286,-71.91,47.39,0.15386419624607853,0.0006873350303937462,0.15242862833995427,0.15532662750025883,3.1295923350142762e-06,1.2909529018184764e-06,2.860364016459952e-07,4.788510878855506e-06,2.8821250243138207e-06,8.829731433721531e-06,8.256506751393584e-08,3.8453730464933535e-05,-0.4664811902509876,0.00019685820449460284,-0.4667980241583676,-0.46614187833749754,0.2256809463051214,1.0640460421553484,-2.07366943359375,2.04925537109375,32.885555555555555,0.008314794192832282,32.87,32.89,0.13559322033898305,0.0,0,1,0
0,0.02378699327519717,0.0007088035036598405,0.022017712783653588,0.025457980406099465,-0.02378698201403331,0.0007088031681003037,-0.02545796835386211,-0.02201770236009696,-1.636670906343639e-05,4.876942870976962e-07,-1.7516436559628233e-05,-1.514935053805685e-05,-1.636670906343639e-05,4.876942870976962e-07,-1.7516436559628233e-05,-1.514935053805685e-05,-1.0155593220338957,38.624992650219774,-97.28,69.53,0.15302718322135325,0.00079757897814546,0.15188323365386053,0.15476915374431346,7.556440208630159e-07,4.055526054196629e-07,2.8410198580635097e-07,1.6337367619052952e-06,7.201520190452722e-08,8.256808788984736e-09,5.928008666983406e-08,8.939365685046789e-08,-0.4672626448172487,0.00029184571169070425,-0.4677951064314262,-0.46683696506263417,-0.06452389396646176,0.8776033688962255,-1.65863037109375,1.64642333984375,32.888888888888886,0.004581228472909228,32.87,32.89,0.10847457627118644,-0.00035087719298251103,0,1,0
0,0.023393819832631956,0.0006691991550952878,0.022017712783653588,0.02476992688161029,-0.02339380875760304,0.0006691988382851196,-0.02476991515510908,-0.02201770236009696,-1.6096184946685357e-05,4.6044440128388785e-07,-1.7043019355313955e-05,-1.514935053805685e-05,-1.6096184946685357e-05,4.6044440128388785e-07,-1.7043019355313955e-05,-1.514935053805685e-05,1.8152542372881364,35.780800502453545,-91.03,54.24,0.15168798374751724,0.0016161158211804375,0.1474143227288407,0.15366923483696907,1.4239645627027992e-07,5.7125969166455525e-08,8.188866591961609e-08,2.6143565342878433e-07,4.918951751455834e-08,2.1289443868092534e-08,2.9014260779876907e-08,8.840318957316888e-08,-0.468661397122171,0.0004947267313235821,-0.46948749299994497,-0.4678733156365657,0.21432067265285748,1.0416012083028154,-1.69830322265625,1.97906494140625,32.89105263157893,0.012093816097974342,32.87,32.91,0.13559322033898305,0.0013333333333333671,0,1,0
0,0.0234406261948421,0.0008556223496175302,0.020641605734675238,0.025457980406099465,-0.023440615097654254,0.0008556219445514766,-0.02545796835386211,-0.020641595962590898,-1.6128390198679583e-05,5.887134158719312e-07,-1.7516436559628233e-05,-1.4202516129428297e-05,-1.6128390198679583e-05,5.887134158719312e-07,-1.7516436559628233e-05,-1.4202516129428297e-05,-4.100748299319728,30.03590520495202,-73.92,42.36,0.15087254165052588,0.0005859063656169318,0.150025706504131,0.15211418075064626,1.1658460356104545e-07,1.939061548991479e-08,8.471789843708146e-08,1.4388717503281114e-07,1.1786969099119354e-07,1.2365275028545287e-08,9.681169061694907e-08,1.3741871070932323e-07,-0.4703008260449279,0.00041842316068104753,-0.4709402784651008,-0.4695798644296179,0.34381307975825837,1.405933343341946,-2.29644775390625,2.91595458984375,32.89444444444444,0.008314794192829322,32.89,32.91,0.10884353741496598,-0.0004953560371516042,0,1,0
0,0.023201913747570396,0.0003188334505840409,0.022705766308142764,0.024081873357121114,-0.023201902763392998,0.00031883329964290963,-0.02408186195635605,-0.022705755558849988,-1.59641434135093e-05,2.1937427168828753e-07,-1.656960215099968e-05,-1.5622767742371126e-05,-1.59641434135093e-05,2.1937427168828753e-07,-1.656960215099968e-05,-1.5622767742371126e-05,3.8787796610169467,31.665889029084557,-75.74,43.74,0.1502949679921801,0.0009491902277220686,0.14886812839559255,0.15253190838960232,2.3929963967675306e-05,3.515440430756904e-05,1.3767064330824476e-07,8.656518244893093e-05,4.9684868934316814e-05,0.000209499420328916,8.09363253513555e-08,0.0009385137579168958,-0.4714530534114225,0.0002552027145846047,-0.47184786624647,-0.47100144974125024,-0.4530587208182285,1.072013700105599,-2.69622802734375,1.41448974609375,32.89421052631578,0.008153649149908732,32.89,32.91,0.13559322033898305,-0.0007719298245612499,0,1,0
0,0.02174342117591798,0.000569745648746309,0.020641605734675238,0.022705766308142764,-0.02174341088221569,0.0005697453790191081,-0.022705755558849988,-0.020641595962590898,-1.4960623409309956e-05,3.920151305088538e-07,-1.5622767742371126e-05,-1.4202516129428297e-05,-1.4960623409309956e-05,3.920151305088538e-07,-1.5622767742371126e-05,-1.4202516129428297e-05,-3.5436610169491507,37.43217335648807,-82.85,57.39,0.14964608634183252,0.0009213545511645737,0.14793859166711967,0.15106110329592773,3.8152873961704205e-05,2.113037742147573e-05,1.177162004343742e-05,7.914447923067846e-05,5.8768833375470136e-08,1.0672942007067207e-08,4.284060332317933e-08,7.595649481606515e-08,-0.47225300543137483,0.00023426422242039184,-0.4726621840858827,-0.4718878801526711,0.3925362544661903,0.9193988210003491,-1.29241943359375,1.97601318359375,32.89444444444443,0.008314794192829326,32.89,32.91,0.10847457627118644,0.0006604747162021389,0,1,0
0,0.022673001854595694,0.0007057679286674209,0.021329659259164413,0.02476992688161029,-0.022672991120814084,0.0007057675945449788,-0.02476991515510908,-0.02132964916134393,-1.5600224065975185e-05,4.856056510029036e-07,-1.7043019355313955e-05,-1.4675933333742575e-05,-1.5600224065975185e-05,4.856056510029036e-07,-1.7043019355313955e-05,-1.4675933333742575e-05,2.8241016949152513,39.65054270417266,-118.22,61.85,0.14863742895965346,0.0012381793941293115,0.14550424283010976,0.15020493756292919,4.274961053703671e-06,2.750929069115511e-06,1.168332046584276e-06,1.0404073372234953e-05,6.065151204144769e-08,1.2986886679578687e-08,3.910477929037798e-08,8.268664947969024e-08,-0.4733153124874778,0.00037695903486099653,-0.4739482864603627,-0.4727196897736529,-0.2332507528678951,1.1861114976572529,-2.4261474609375,2.01263427734375,32.89631578947367,0.015963948303265713,32.87,32.91,0.10847457627118644,0.0019298245614034488,0,1,0
0,0.023454668103505185,0.0006160684617228287,0.022705766308142764,0.024081873357121114,-0.02345465699966961,0.0006160681700656272,-0.02408186195635605,-0.022705755558849988,-1.613805177427783e-05,4.238876750635806e-07,-1.656960215099968e-05,-1.5622767742371126e-05,-1.613805177427783e-05,4.238876750635806e-07,-1.656960215099968e-05,-1.5622767742371126e-05,-3.0791836734693874,40.025183866552055,-92.53,55.74,0.147836484790296,0.000755678752312135,0.14556566040554406,0.14884090814763967,4.877119769140112e-07,2.5372166016928235e-07,1.9028046972026363e-07,1.0410061234409833e-06,6.238713939658858e-08,1.5785975178002596e-08,4.307596913305366e-08,1.0808956567983417e-07,-0.474575959094605,0.0003219838396561492,-0.47506498131009844,-0.4740197073230769,0.08236906368738368,1.1885722648008448,-2.1392822265625,2.154541015625,32.9011111111111,0.016629588385661608,32.87,32.91,0.13605442176870747,-0.0009907120743033846,0,1,0
0,0.023100932183694012,0.0003402046505130474,0.022705766308142764,0.023393819832631935,-0.023100921247323058,0.00034020448945442955,-0.02339380875760302,-0.022705755558849988,-1.5894662758362382e-05,2.34078787199262e-07,-1.6096184946685404e-05,-1.5622767742371126e-05,-1.5894662758362382e-05,2.34078787199262e-07,-1.6096184946685404e-05,-1.5622767742371126e-05,2.621220338983051,32.28313563838503,-75.19,54.82,0.1474494794209801,0.0010901994519790929,0.14444230550054324,0.14870779489592867,3.303706605841572e-07,8.182879756512808e-08,1.8017950344706048e-07,4.377891546626072e-07,2.859268082203754e-07,4.125364144494611e-07,8.572809846746133e-08,1.7511073761315143e-06,-0.47535670311923045,0.00012298371293198502,-0.47551403956407123,-0.47510970808438713,0.15205906445736697,0.9061853840044899,-1.74713134765625,1.77764892578125,32.89444444444443,0.01571348402636705,32.87,32.91,0.10847457627118644,0.0014860681114549886,0,1,0
0,0.023393819832631977,8.025619289152616e-05,0.022705766308142764,0.024081873357121114,-0.023393808757603076,8.025615489689067e-05,-0.02408186195635605,-0.022705755558849988,-1.6096184946685347e-05,5.5220504096424255e-08,-1.656960215099968e-05,-1.5622767742371126e-05,-1.6096184946685347e-05,5.5220504096424255e-08,-1.656960215099968e-05,-1.5622767742371126e-05,-1.7349830508474589,32.93216254794784,-80.09,41.11,0.1474198040759987,0.0009313082229141792,0.1457048941840368,0.14901226563678313,5.181396035697568e-06,2.609745906724816e-06,2.4693135713916386e-07,8.524940157766727e-06,4.864009521871437e-06,1.8840685161088604e-05,4.560352315255932e-08,8.466524984813969e-05,-0.47560444676051866,5.4199900601511505e-05,-0.4757112866070095,-0.4755238408932572,0.0538473389580587,1.2916707321037586,-2.28118896484375,2.22930908203125,32.9036842105263,0.009296590385606412,32.89,32.91,0.10847457627118644,0.0008070175438594885,0,1,0
0,0.023258081382222556,0.00030707256762152924,0.022017712783653588,0.023393819832631935,-0.023258070371454494,0.00030707242224819775,-0.02339380875760302,-0.02201770236009696,-1.600278971590229e-05,2.112821623767135e-07,-1.6096184946685404e-05,-1.514935053805685e-05,-1.600278971590229e-05,2.112821623767135e-07,-1.6096184946685404e-05,-1.514935053805685e-05,2.1650680272108866,33.92614909391149,-79.58,40.96,0.14679248290725982,0.0013148138945792685,0.14456543783484324,0.14875882924488226,1.251547175774041e-06,7.144113914462458e-07,4.068667631206011e-07,2.791149142570713e-06,6.839198024958824e-08,3.470462518050453e-08,3.5955487105432044e-08,1.4528725254150227e-07,-0.4760162551176128,0.00020821678404687037,-0.47640544243586647,-0.4757308613794379,0.5277912906618332,1.266650472376784,-2.04925537109375,3.37066650390625,32.90222222222221,0.009749960430433753,32.89,32.91,0.10884353741496598,-0.000928792569659258,0,1,0
0,0.02261743511243136,0.00036020080585831023,0.022017712783653588,0.023393819832631935,-0.02261742440495599,0.0003602006353331722,-0.02339380875760302,-0.02201770236009696,-1.5561991209384803e-05,2.478371993338629e-07,-1.6096184946685404e-05,-1.514935053805685e-05,-1.5561991209384803e-05,2.478371993338629e-07,-1.6096184946685404e-05,-1.514935053805685e-05,-1.1837966101694908,32.115151952120435,-72.29,43.0,0.14593404904111443,0.0006853224041673215,0.14452821534285612,0.14682943056444617,2.1141063859947438e-07,6.025866517939247e-08,1.5648670965807283e-07,3.656856272397159e-07,1.1922785108984696e-07,6.514342759863716e-08,4.5384387648530596e-08,2.042463914659896e-07,-0.4770954348808588,0.0004071791872915726,-0.4777970841996123,-0.47646461834207304,-0.6754068227914664,1.6683992685305518,-3.668212890625,3.21197509765625,32.89421052631578,0.008153649149908732,32.89,32.91,0.13559322033898305,-0.0009122807017542045,0,1,0
0,0.0231129816593711,0.0006557235574061628,0.022017712783653588,0.026146033930588636,-0.023112970717295664,0.0006557232469755701,-0.02614602155261514,-0.02201770236009696,-1.5902953434720393e-05,4.5117247757826417e-07,-1.7989853763942512e-05,-1.514935053805685e-05,-1.5902953434720393e-05,4.5117247757826417e-07,-1.7989853763942512e-05,-1.514935053805685e-05,-1.9053220338983046,32.64993610938834,-79.78,46.79,0.14544400676020955,0.0006374053626176703,0.14438178687576003,0.14651062131785322,1.5515034022825073e-07,3.3096946420866866e-08,1.0111827805888224e-07,1.9721021022695083e-07,6.785729410126834e-08,2.6378118388327957e-08,4.400162754386672e-08,1.227734846519518e-07,-0.4786443497161888,0.00047112638905138463,-0.47942079252677594,-0.4778826487885518,0.41364716551446634,1.2253690629312253,-2.14080810546875,2.59552001953125,32.89888888888888,0.009938079899997088,32.89,32.91,0.13559322033898305,0.00033023735810106946,0,1,0
0,0.02296146187467593,0.0003324936285174181,0.022705766308142764,0.023393819832631935,-0.022961451004332546,0.00033249347110932804,-0.02339380875760302,-0.022705755558849988,-1.579869981154194e-05,2.2877319636127186e-07,-1.6096184946685404e-05,-1.5622767742371126e-05,-1.579869981154194e-05,2.2877319636127186e-07,-1.6096184946685404e-05,-1.5622767742371126e-05,1.7033220338983057,33.067595656827116,-77.87,64.38,0.14398948722335805,0.0011063120816442338,0.14113794205167632,0.14559379723222762,0.00022977427591498872,0.0002704227328177911,9.14625160519763e-08,0.0006242538518807918,0.0003581395428352141,0.0015175631383956333,5.6305502708643905e-08,0.006796614294977727,-0.4802660258257408,0.000438291164587333,-0.4809417978148718,-0.4795115855080444,-0.13361426795978404,1.0519674398417662,-1.8463134765625,2.12554931640625,32.90157894736841,0.009874559494363151,32.89,32.91,0.13559322033898305,0.0004210526315788636,0,1,0
0,0.02341722301373703,0.00048430450469801604,0.022705766308142764,0.02476992688161029,-0.023417211927628627,0.000484304275420094,-0.02476991515510908,-0.022705755558849988,-1.6112287572682478e-05,3.332271058725638e-07,-1.7043019355313955e-05,-1.5622767742371126e-05,-1.6112287572682478e-05,3.332271058725638e-07,-1.7043019355313955e-05,-1.5622767742371126e-05,1.9757142857142866,33.11281337373509,-75.51,51.09,0.14364096986945668,0.0008201638120716197,0.14170986541550376,0.1448283094542356,0.00022154002111786266,0.00012882335426200116,6.585416130384799e-05,0.00048543397702580354,5.40097203031766e-08,2.2591463159360672e-08,3.316651240713869e-08,1.164266904829514e-07,-0.48136521311654984,0.00018052999516456275,-0.48157841733613704,-0.481003282987459,0.3516895303655203,1.316635653388911,-2.10418701171875,2.49786376953125,32.89999999999999,0.00999999999999801,32.89,32.91,0.13605442176870747,-0.0016718266253866645,0,1,0
0,0.024058470176016023,0.000325161072888429,0.023393819832631935,0.02476992688161029,-0.024058458786330415,0.0003251609189516904,-0.02476991515510908,-0.02339380875760302,-1.6553499525002615e-05,2.2372801039418517e-07,-1.7043019355313955e-05,-1.6096184946685404e-05,-1.6553499525002615e-05,2.2372801039418517e-07,-1.7043019355313955e-05,-1.6096184946685404e-05,-1.6521355932203368,36.11375607924364,-88.0,49.08,0.14269292868730404,0.001030936623032126,0.1408803636548043,0.14522438752116557,2.4643262122070002e-05,1.5304559615050125e-05,7.014952568351596e-06,5.814005142481878e-05,7.111373021255374e-08,9.477803737597694e-09,5.3372728101930625e-08,8.416431987727947e-08,-0.4815671820163287,1.868562336570608e-05,-0.4815897310915077,-0.48154026741312195,-0.15519651388700356,1.0865400458602859,-1.95159912109375,1.85699462890625,32.89888888888888,0.009938079899997088,32.89,32.91,0.10847457627118644,-0.0006604747162021389,0,1,0
0,0.02327759457511692,0.00026992299536884607,0.022705766308142764,0.024081873357121114,-0.02327758355511099,0.0002699228675827487,-0.02408186195635605,-0.022705755558849988,-1.601621582433499e-05,1.857212924569009e-07,-1.656960215099968e-05,-1.5622767742371126e-05,-1.601621582433499e-05,1.857212924569009e-07,-1.656960215099968e-05,-1.5622767742371126e-05,0.4265084745762699,30.61431193521876,-81.1,46.25,0.14293552351099043,0.0008115505722427218,0.14180161502699437,0.1449326397333545,2.5686020660481427e-06,1.6274547705169954e-06,7.347152583012294e-07,6.200761579729036e-06,7.484895808412947e-08,2.31582390796904e-08,5.747444508501524e-08,1.4976189611584328e-07,-0.481736028920337,0.00018209024557291564,-0.48213188192661277,-0.4815425965713792,0.9950566824257522,2.031327727015848,-2.17742919921875,4.89959716796875,32.89210526315789,0.006137844099835937,32.89,32.91,0.13559322033898305,0.0005964912280700568,0,1,0
0,0.023211275020012405,0.0003037729301399298,0.022705766308142764,0.023393819832631935,-0.023211264031403264,0.0003037727863287027,-0.02339380875760302,-0.022705755558849988,-1.5970584463908113e-05,2.090118373275849e-07,-1.6096184946685404e-05,-1.5622767742371126e-05,-1.5970584463908113e-05,2.090118373275849e-07,-1.6096184946685404e-05,-1.5622767742371126e-05,2.623593220338982,34.45312632938306,-79.43,49.87,0.1423409518309193,0.0006631403213990971,0.14068010912404663,0.14336503085981894,3.740946470919661e-07,1.397736765305992e-07,1.9013924663090794e-07,6.649974852568499e-07,1.0613577406713164e-07,4.150333635308077e-08,5.916461143329786e-08,1.8019831156502e-07,-0.48300898738452186,0.000520308710028254,-0.48389063764475804,-0.4822068873472517,-1.074779296269004,2.402468468291555,-4.82330322265625,3.92608642578125,32.89666666666666,0.009428090415818756,32.89,32.91,0.13559322033898305,-0.0008255933952526737,0,1,0
0,0.0232393588373385,0.00028708750084379276,0.022705766308142764,0.023393819832631935,-0.023239347835433993,0.0002870873649317294,-0.02339380875760302,-0.022705755558849988,-1.5989907615104633e-05,1.9753137976285505e-07,-1.6096184946685404e-05,-1.5622767742371126e-05,-1.5989907615104633e-05,1.9753137976285505e-07,-1.6096184946685404e-05,-1.5622767742371126e-05,-7.1493537414966015,24.325751743402897,-73.91,25.0,0.14137244792188744,0.001091322278089412,0.13865538682711298,0.1434441693742133,0.0005202518160390586,0.0003355117276520085,1.5984649116168215e-07,0.0009294081285900151,0.0005333037203721092,0.002152434634127692,6.08350389820489e-08,0.009654253132904494,-0.4848231500616701,0.0004565704826173462,-0.48546559034436754,-0.4839972291833395,0.3077761627906977,0.9025354329452413,-1.76239013671875,2.14385986328125,32.89421052631578,0.00815364914990873,32.89,32.91,0.10884353741496598,0.0006315789473682954,0,1,0
0,0.022952163854074743,0.00032988323580119975,0.022705766308142764,0.023393819832631935,-0.022952152988133176,0.0003298830796289141,-0.02339380875760302,-0.022705755558849988,-1.5792302281753933e-05,2.2697710815317522e-07,-1.6096184946685404e-05,-1.5622767742371126e-05,-1.5792302281753933e-05,2.2697710815317522e-07,-1.6096184946685404e-05,-1.5622767742371126e-05,6.457491525423731,34.12310435257478,-71.12,45.23,0.14033915503633126,0.0009164328648110648,0.13857653326457398,0.1422908394219063,0.00016334419172658283,0.00010022016272220919,4.6656027985720514e-05,0.00037970198977489006,3.6485727205859204e-08,7.241982998224093e-09,2.7149511886261427e-08,5.172034241423401e-08,-0.48556445709267876,4.948470597864631e-05,-0.48561951637590683,-0.48545511031117317,0.20390485999675187,0.905156470577064,-1.69830322265625,2.4505615234375,32.89888888888888,0.009938079899997086,32.89,32.91,0.10847457627118644,0.0006604747162021389,0,1,0
0,0.02266832121837468,0.00015608360337340043,0.022017712783653588,0.022705766308142764,-0.022668310486808962,0.00015608352948078935,-0.022705755558849988,-0.02201770236009696,-1.5597003540775783e-05,1.0739377173191996e-07,-1.5622767742371126e-05,-1.514935053805685e-05,-1.5597003540775783e-05,1.0739377173191996e-07,-1.5622767742371126e-05,-1.514935053805685e-05,-2.615152542372883,30.752249600398432,-67.03,40.77,0.1403066176830799,0.0009967139929703882,0.13867426764568858,0.1422257086742733,1.745958952429319e-05,1.0823476603580637e-05,5.016140895862172e-06,4.117700980121088e-05,9.48414487703299e-08,2.748327178807901e-08,4.1253944036367084e-08,1.388877506195346e-07,-0.48516292060805494,0.00015388595689946319,-0.485425855264677,-0.48494062630069545,0.055148946991108824,1.0496442545003644,-1.64337158203125,2.47955322265625,32.90444444444444,0.01978277090529445,32.87,32.93,0.13559322033898305,-0.0015892672858619616,0,1,0
0,0.022691819277241003,9.696279749044088e-05,0.022017712783653588,0.022705766308142764,-0.02269180853455089,9.696275158661678e-05,-0.022705755558849988,-0.02201770236009696,-1.561317144768908e-05,6.671553138906648e-08,-1.5622767742371126e-05,-1.514935053805685e-05,-1.561317144768908e-05,6.671553138906648e-08,-1.5622767742371126e-05,-1.514935053805685e-05,1.393762711864407,27.039592949209666,-61.6,38.12,0.14083714075013498,0.000729667823665845,0.13975515790937026,0.14227822462513587,1.9435324258469e-06,1.131307893163522e-06,6.654836885470629e-07,4.445366209551681e-06,1.9493337912212215e-07,9.635350316289242e-08,8.793175102017814e-08,4.3054085898359767e-07,-0.4850207785632005,0.00011466585374615143,-0.48526644347987596,-0.4849092761387454,-0.09956643835782412,0.6918024634628157,-1.49078369140625,1.53656005859375,32.89947368421051,0.017613895295453933,32.87,32.93,0.10847457627118644,0.0024561403508770907,0,1,0
0,0.022626195492385516,0.0002200396907559663,0.022017712783653588,0.022705766308142764,-0.022626184780762885,0.00022003958658546442,-0.022705755558849988,-0.02201770236009696,-1.556801881398102e-05,1.5139894140242293e-07,-1.5622767742371126e-05,-1.514935053805685e-05,-1.556801881398102e-05,1.5139894140242293e-07,-1.5622767742371126e-05,-1.514935053805685e-05,0.021768707482994122,31.517686541034145,-79.52,47.33,0.1407002126492424,0.001117089834830739,0.13854175968813112,0.14309078559386026,0.0001580333799250114,8.14883369943672e-05,6.053708889785774e-07,0.0002570277991361593,0.00015547688749488855,0.0006402585638557377,5.380717693582657e-08,0.002795330318460229,-0.48568513516059447,0.0002287085672826252,-0.48604467854426914,-0.48530801835965803,0.225475585786048,1.07776040752558,-1.89971923828125,1.81121826171875,32.90555555555554,0.008314794192829324,32.89,32.91,0.10884353741496598,0.0008255933952526737,0,1,0
0,0.022064519145863666,0.0004925132600848868,0.021329659259164413,0.024081873357121114,-0.022064508700148245,0.0004925130269208014,-0.02408186195635605,-0.02132964916134393,-1.5181555790051002e-05,3.38875163600394e-07,-1.656960215099968e-05,-1.4675933333742575e-05,-1.5181555790051002e-05,3.38875163600394e-07,-1.656960215099968e-05,-1.4675933333742575e-05,-1.1407118644067802,30.51114064667274,-64.53,52.31,0.1396644816828242,0.0014567805798067612,0.1369013551302111,0.14268294549091592,3.817460726028332e-05,2.469893561899733e-05,1.0026914237081937e-05,9.267878597995217e-05,4.7183018327988586e-08,8.428445702005684e-09,3.746984346137804e-08,6.28957984340206e-08,-0.48623359304737046,6.255467433397402e-05,-0.4862871475808713,-0.48607927574366777,-0.16897168407960803,0.8444588696064137,-1.57012939453125,1.641845703125,32.91105263157894,0.012093816097974733,32.89,32.93,0.13559322033898305,-0.0007719298245612249,0,1,0
0,0.021455182537280612,0.0003101625121545281,0.020641605734675238,0.022017712783653588,-0.02145517238003537,0.0003101623653183623,-0.02201770236009696,-0.020641595962590898,-1.4762299985880997e-05,2.1340820759010492e-07,-1.514935053805685e-05,-1.4202516129428297e-05,-1.4762299985880997e-05,2.1340820759010492e-07,-1.514935053805685e-05,-1.4202516129428297e-05,1.5703389830508474,31.775049169365563,-76.72,49.11,0.13981752410953596,0.0006883696349637825,0.13870934460417297,0.1413878755950183,3.795774568199942e-06,2.305457369118732e-06,1.1543354132067088e-06,8.855721541819583e-06,8.301218482704319e-08,1.887143175386761e-08,5.3349514383168716e-08,1.1196921520675542e-07,-0.4861259559096143,7.399855476456602e-05,-0.48624574438690626,-0.48601438268467845,0.23383490609486504,1.0375721767751551,-1.96685791015625,1.89208984375,32.90888888888887,0.0045812284729076,32.89,32.91,0.13559322033898305,0.0003508771929823863,0,1,0
0,0.021680706975740455,0.0003531942466097242,0.020641605734675238,0.022017712783653588,-0.021680696711728172,0.00035319407940160913,-0.02201770236009696,-0.020641595962590898,-1.4917472723698818e-05,2.430163161129087e-07,-1.514935053805685e-05,-1.4202516129428297e-05,-1.4917472723698818e-05,2.430163161129087e-07,-1.514935053805685e-05,-1.4202516129428297e-05,-1.2661694915254218,30.974858223039117,-78.4,46.67,0.1402358131385607,0.000755877201467604,0.13836068420045264,0.14104922413403762,7.026347727155347e-05,5.454895442310194e-05,6.252838395871658e-07,0.00013719830817994648,7.866148121402551e-05,0.00033184730193991206,7.124276424179399e-08,0.0014865677024145615,-0.4860784359258365,9.309903074499098e-05,-0.4862910596127673,-0.4859954129915647,-0.2181722863436337,0.8471341363395252,-1.910400390625,1.56707763671875,32.90999999999998,1.4210854715202004e-14,32.91,32.91,0.13559322033898305,0.0,0,1,0
0,0.022162812506505057,0.00029193064696297384,0.021329659259164413,0.022705766308142764,-0.022162802014255762,0.00029193050875808024,-0.022705755558849988,-0.02132964916134393,-1.524918681923876e-05,2.0086372036459642e-07,-1.5622767742371126e-05,-1.4675933333742575e-05,-1.524918681923876e-05,2.0086372036459642e-07,-1.5622767742371126e-05,-1.4675933333742575e-05,0.7230612244897973,33.962437536461074,-83.1,41.03,0.13946638193165362,0.0009935593259247234,0.1380230796365681,0.14111865441680366,3.0632964266784476e-05,1.857782079082432e-05,8.852144818713315e-06,7.037173706084032e-05,4.399604479821234e-08,4.876249021554108e-09,3.7490266314348444e-08,5.724870096122242e-08,-0.48681932699408936,0.0003277904841523195,-0.48740048313511236,-0.48633335392636023,0.4914972385756727,0.713284786956439,-1.17645263671875,1.67388916015625,32.90999999999998,1.4210854715202004e-14,32.91,32.91,0.10884353741496598,0.0,0,1,0
0,0.02270576630814281,4.5102810375396984e-17,0.022705766308142764,0.022705766308142764,-0.02270575555884994,4.85722573273506e-17,-0.022705755558849988,-0.022705755558849988,-1.5622767742371126e-05,0.0,-1.5622767742371126e-05,-1.5622767742371126e-05,-1.5622767742371126e-05,0.0,-1.5622767742371126e-05,-1.5622767742371126e-05,-1.9171525423728804,38.5797801352187,-83.15,53.47,0.13817300187424789,0.0005501430444991422,0.137032714259077,0.13901096365207496,3.359378058261706e-06,2.0273083908205943e-06,1.0749915586821414e-06,7.819090021466746e-06,1.1933721210786158e-07,7.750248892868525e-08,4.952013134268537e-08,2.521682108964179e-07,-0.48823385951372444,0.0004761959591981651,-0.4890357195428565,-0.4874805707278072,-0.2598236112390436,0.7204147592206775,-1.77154541015625,1.19171142578125,32.90999999999998,1.4210854715202004e-14,32.91,32.91,0.10847457627118644,0.0,0,1,0
0,0.022233022049820195,0.0004381335530498826,0.021329659259164413,0.022705766308142764,-0.022233011524332647,0.0004381333456300668,-0.022705755558849988,-0.02132964916134393,-1.5297494697230008e-05,3.014590499411342e-07,-1.5622767742371126e-05,-1.4675933333742575e-05,-1.5297494697230008e-05,3.014590499411342e-07,-1.5622767742371126e-05,-1.4675933333742575e-05,1.7969152542372864,34.55005914257644,-83.06,50.87,0.13774889695727208,0.0010071127385912263,0.13578151081226325,0.13913555170542347,0.00012979846828421762,8.305718976498015e-05,7.730718103063002e-07,0.00023107130636945095,0.00013238621491470736,0.0005603185336961832,5.129910183839306e-08,0.0025096153646756813,-0.48999163149724134,0.0005072539237924933,-0.4907892783144335,-0.4891343798175116,0.12611786721657878,1.8831339923122459,-3.5369873046875,2.97698974609375,32.90999999999998,1.4210854715202004e-14,32.91,32.91,0.10847457627118644,0.0,0,1,0
0,0.022008351511211492,7.970836264601058e-05,0.021329659259164413,0.022017712783653588,-0.022008341092086773,7.970832491072714e-05,-0.02201770236009696,-0.02132964916134393,-1.5142909487657984e-05,5.484356792207155e-08,-1.514935053805685e-05,-1.4675933333742575e-05,-1.5142909487657984e-05,5.484356792207155e-08,-1.514935053805685e-05,-1.4675933333742575e-05,-0.61030612244898,30.943119764992073,-70.77,45.56,0.13650389626509504,0.0010509925190570766,0.13445557682607776,0.13871019654076433,4.040491323241088e-05,2.4733727528445523e-05,1.1603896146926804e-05,9.38251147047291e-05,7.918602028237705e-08,3.401510209161737e-08,4.26809584791498e-08,1.3775271585003343e-07,-0.4913484229879259,0.00024995777238365647,-0.49166241361672325,-0.4908657328559865,0.18167188090662803,0.977956753005929,-1.67999267578125,2.30255126953125,32.91888888888887,0.016629588385664557,32.91,32.95,0.10884353741496598,0.0006604747162023736,0,1,0
0,0.02239428261800245,0.0003424841041545052,0.022017712783653588,0.022705766308142764,-0.0223942720161712,0.00034248394201675207,-0.022705755558849988,-0.02201770236009696,-1.540845049447208e-05,2.3564717182617326e-07,-1.5622767742371126e-05,-1.514935053805685e-05,-1.540845049447208e-05,2.3564717182617326e-07,-1.5622767742371126e-05,-1.514935053805685e-05,-1.3591186440677971,34.258012645360104,-82.01,42.59,0.13595903010379895,0.0012623893670564504,0.1337655974349787,0.1389205448096049,4.206854915272429e-06,2.703792906936982e-06,1.1603535091455052e-06,1.0247775333709436e-05,6.607383071250132e-08,2.1081476108196744e-08,4.5115472536186264e-08,1.2020241545547598e-07,-0.49158563333472105,9.293363556676468e-05,-0.4916820274042022,-0.49139836414193233,0.05608172925471076,0.9664904883579214,-1.73797607421875,1.66778564453125,32.926842105263155,0.019749118988733317,32.91,32.95,0.10847457627118644,0.0030877192982460967,0,1,0
0,0.02270576630814281,4.5102810375396984e-17,0.022705766308142764,0.022705766308142764,-0.02270575555884994,4.85722573273506e-17,-0.022705755558849988,-0.022705755558849988,-1.5622767742371122e-05,3.3881317890172014e-21,-1.5622767742371126e-05,-1.5622767742371126e-05,-1.5622767742371122e-05,3.3881317890172014e-21,-1.5622767742371126e-05,-1.5622767742371126e-05,1.4127457627118645,31.216872321639343,-73.71,46.09,0.13625435674610617,0.0007774193546265075,0.13487728668926233,0.13758596357237174,4.868629922977072e-07,2.4905009918147094e-07,2.0324869952352453e-07,1.0338778408469974e-06,7.182867275005411e-08,1.4118363823370362e-08,5.504940119254102e-08,1.0004362999859813e-07,-0.49120505335364,8.080877259252553e-05,-0.4913715106788724,-0.4911238701800432,-0.16830922504629808,0.6925983437842056,-1.63726806640625,1.22833251953125,32.92555555555555,0.00831479419283228,32.91,32.93,0.13559322033898305,-0.0008255933952529671,0,1,0
0,0.022775501462651847,0.0002076500109952824,0.022705766308142764,0.023393819832631935,-0.02277549068034519,0.00020764991269026656,-0.02339380875760302,-0.022705755558849988,-1.567074921578135e-05,1.4287418664732508e-07,-1.6096184946685404e-05,-1.5622767742371126e-05,-1.567074921578135e-05,1.4287418664732508e-07,-1.6096184946685404e-05,-1.5622767742371126e-05,-0.7068813559322051,37.4665411018747,-92.78,51.87,0.13630764461332004,0.0004970629034228408,0.13544343485145052,0.13711798547058698,1.3909553338291156e-07,2.589257177229591e-08,1.1032315059768481e-07,1.927077830650367e-07,8.179999154619513e-08,1.6360819413665615e-08,6.82874678113968e-08,1.346734728883949e-07,-0.49145509932191783,0.00023081352604478465,-0.491881758434634,-0.4911477551085894,0.3345025680201225,0.7156732741222152,-1.29547119140625,1.55792236328125,32.90473684210525,0.019295055557709124,32.87,32.93,0.10847457627118644,-0.0021052631578947416,0,1,0
0,0.022729169489247882,0.00012471941451822004,0.022705766308142764,0.023393819832631935,-0.02272915872887555,0.00012471935547394628,-0.02339380875760302,-0.022705755558849988,-1.563887036836821e-05,8.581355148026498e-08,-1.6096184946685404e-05,-1.5622767742371126e-05,-1.563887036836821e-05,8.581355148026498e-08,-1.6096184946685404e-05,-1.5622767742371126e-05,1.4911904761904784,35.424202614818206,-86.47,46.17,0.13619892478081555,0.000717463170700715,0.1345860938457198,0.1373672386539746,0.00013763285566596622,0.0001001297920382199,1.1441680884476614e-07,0.00025559298271421774,0.00015488174508557773,0.0006344489672501975,5.079972350153367e-08,0.002770771877132717,-0.4923814613383651,0.00025365944702898495,-0.49275220265052144,-0.4919380118168659,-0.4238914319362593,1.1976698826503767,-2.39105224609375,1.873779296875,32.921111111111095,0.00993807990000062,32.91,32.93,0.10884353741496598,0.0,0,1,0
0,0.022724488853026862,0.00022622537057677425,0.022017712783653588,0.023393819832631935,-0.022724478094870448,0.00022622526347786868,-0.02339380875760302,-0.02201770236009696,-1.5635649843168787e-05,1.556550161746947e-07,-1.6096184946685404e-05,-1.514935053805685e-05,-1.5635649843168787e-05,1.556550161746947e-07,-1.6096184946685404e-05,-1.514935053805685e-05,-0.8552542372881354,34.70981181828543,-80.28,51.55,0.13514704045992604,0.0005035715674979074,0.13436903136136663,0.13619215088159223,5.6983050213284085e-05,3.45953030320909e-05,1.6428256297096142e-05,0.00013100210744122472,4.486138854767893e-08,3.828541288865082e-09,3.962112409482913e-08,5.2131840650327527e-08,-0.49283490446702605,2.441168900134426e-05,-0.49286404078284357,-0.49277958659669074,0.6752797694003548,0.7512537024900908,-0.86822509765625,1.983642578125,32.92999999999999,7.105427357601002e-15,32.93,32.93,0.13559322033898305,0.0,0,1,0
0,0.022729011359645817,0.0001861346682660129,0.022017712783653588,0.023393819832631935,-0.02272900059934836,0.00018613458014672205,-0.02339380875760302,-0.02201770236009696,-1.5638761566841198e-05,1.280704932685043e-07,-1.6096184946685404e-05,-1.514935053805685e-05,-1.5638761566841198e-05,1.280704932685043e-07,-1.6096184946685404e-05,-1.514935053805685e-05,0.3003728813559319,34.84214185456315,-74.65,48.8,0.13481002713263546,0.0015320991122950915,0.13074524680070526,0.13732753479301216,5.929157539957663e-06,3.843206930104054e-06,1.5845332289981613e-06,1.4504922914435124e-05,5.830299591971081e-08,3.001566202826638e-08,3.404321224474981e-08,1.7611024602539235e-07,-0.4929867793615391,0.00020836562311743847,-0.49346856711937537,-0.49279651795562374,-0.16455922469903458,1.0631416162535894,-1.9561767578125,1.654052734375,32.9257894736842,0.008153649149911629,32.91,32.93,0.13559322033898305,0.0006315789473685197,0,1,0
0,0.022963201300298625,0.0004411235801452131,0.022017712783653588,0.025457980406099465,-0.022963190429131735,0.00044112337130987057,-0.02545796835386211,-0.02201770236009696,-1.579989662833903e-05,3.035163466744772e-07,-1.7516436559628233e-05,-1.514935053805685e-05,-1.579989662833903e-05,3.035163466744772e-07,-1.7516436559628233e-05,-1.514935053805685e-05,-0.5299661016949155,35.23713039258356,-79.45,44.69,0.13509556104580175,0.001193370999406342,0.13142149329824068,0.13711100291686174,0.001625534510559635,0.00111272978258318,1.4194775968850653e-06,0.004105564314598624,0.0036896275683423276,0.006886526999908061,4.062637132228042e-07,0.02175139281337553,-0.4950516460665624,0.0010594651428551686,-0.4969956035550984,-0.4935737393664837,0.037944342754954626,1.0508045613172179,-2.18963623046875,1.55181884765625,32.9211111111111,0.009938079900000618,32.91,32.93,0.13559322033898305,0.0009907120743035606,0,1,0
0,0.01884892206202657,0.005326954743708863,0.007568588769380921,0.029586301553034506,-0.018848913138628912,0.005326952221838637,-0.029586287546380288,-0.00756858518628333,-1.2969054978051644e-05,3.6652265158406317e-06,-2.035693978551389e-05,-5.2075892474570424e-06,-1.2969054978051644e-05,3.6652265158406317e-06,-2.035693978551389e-05,-5.2075892474570424e-06,-0.7828571428571414,60.25473413528836,-148.83,129.85,0.13272549986793972,0.003087657494620516,0.1271535690938637,0.13648634317873595,0.002986607533460277,0.001299020394236189,0.0010343377980498725,0.004677141042412323,0.00030222167789905485,0.0012777658023488056,2.939839417043233e-08,0.005723307853567755,-0.4999366348224024,0.001626859016781883,-0.5025710284565297,-0.4972752693349437,-1.037937371305717,1.4641046863058806,-3.80401611328125,1.251220703125,32.9257894736842,0.008153649149911627,32.91,32.93,0.13605442176870747,0.00021052631578950657,0,1,0
0,0.016503986567138973,0.0007459887166475728,0.015137177538761842,0.01926549868569689,-0.01650397875387334,0.0007459883634839307,-0.01926548956508484,-0.01513717037256666,-1.13556153737546e-05,5.132796797276567e-07,-1.3255681720799745e-05,-1.0415178494914085e-05,-1.13556153737546e-05,5.132796797276567e-07,-1.3255681720799745e-05,-1.0415178494914085e-05,1.5354237288135604,30.63391021937828,-80.64,41.68,0.12705293376512572,0.0011880112712399345,0.12547433682934184,0.12925821596564716,0.00038815146390756383,0.0002411559125288368,0.0001097908943990744,0.0009144949636268145,5.8657639548429225e-08,2.3234200931642872e-08,3.952733106278583e-08,1.173875311031268e-07,-0.5046486458417276,0.0009681263191243518,-0.5059686427107157,-0.5028406458988592,2.0814001430756477,3.3073089158378197,-3.778076171875,6.55670166015625,32.92999999999999,7.105427357601002e-15,32.93,32.93,0.13559322033898305,0.0,0,1,0
0,0.017748972550088105,0.0036847459540936614,0.00894469581835927,0.025457980406099465,-0.0177489641474251,0.0036847442096727707,-0.02545796835386211,-0.00894469158378939,-1.2212231556188679e-05,2.5353000400520542e-06,-1.7516436559628233e-05,-6.154423656085595e-06,-1.2212231556188679e-05,2.5353000400520542e-06,-1.7516436559628233e-05,-6.154423656085595e-06,3.186237288135592,38.71542333241498,-113.86,94.46,0.12693928824599374,0.002225482983936996,0.12306099412538864,0.13185204648606424,0.0010498041305341517,0.0014393894419273891,2.7807243646217063e-05,0.003602903725693375,0.002175917774462039,0.00742451062151273,6.756323796632858e-08,0.03204251734689463,-0.5063225662965821,0.00010467207376222256,-0.5064270207169018,-0.5060551351996223,-0.5504999921220525,3.741348585045459,-7.3333740234375,5.108642578125,32.929999999999986,0.013333333333335418,32.91,32.95,0.13559322033898305,-0.0006604747162023736,0,1,0
0,0.01257092385282924,0.0033608711232982567,0.002064160573467524,0.025457980406099465,-0.012570917901541839,0.0033608695322051747,-0.02545796835386211,-0.00206415959625909,-8.649460273417588e-06,2.3124570322253687e-06,-1.7516436559628233e-05,-1.4202516129428298e-06,-8.649460273417588e-06,2.3124570322253687e-06,-1.7516436559628233e-05,-1.4202516129428298e-06,-7.779152542372876,74.53328565231288,-255.01,133.66,0.12831268442281044,0.0006495990362198788,0.12735709601237227,0.12941907096638103,0.002019843392045282,0.0007319534093112255,0.0008191032457034756,0.0033305606674693777,0.00047615334093382365,0.002018342225808683,3.428066086032244e-08,0.009039253773510232,-0.5055563358494318,0.000439285913709688,-0.5062046798834016,-0.5047864308883391,-0.8065311252035515,2.3686171936067764,-4.04205322265625,4.79278564453125,32.92999999999999,7.105427357601002e-15,32.93,32.93,0.16271186440677965,0.0,0,1,0
0,0.018549361343881597,0.0011764516335805717,0.014449124014272667,0.023393819832631935,-0.018549352562301103,0.0011764510766285234,-0.02339380875760302,-0.01444911717381363,-1.2762941365288982e-05,8.094609264506994e-07,-1.6096184946685404e-05,-9.941761290599808e-06,-1.2762941365288982e-05,8.094609264506994e-07,-1.6096184946685404e-05,-9.941761290599808e-06,3.1288435374149697,54.51246937820934,-151.19,132.79,0.1271389541824083,0.00173240116224822,0.12433722540849435,0.13001255616374086,0.00030943912318135206,0.0001914419784504879,8.783959808672667e-05,0.0007257539173911905,6.954134877584928e-08,6.322481672414339e-08,2.026079620222332e-08,1.9541272382401012e-07,-0.5039285366031135,0.0004508242882334499,-0.5046927370724992,-0.503229212483416,0.7512587175771557,1.3356197394006013,-1.89971923828125,2.77557373046875,32.93888888888888,0.009938079900000616,32.93,32.95,0.13605442176870747,0.0009907120743035606,0,1,0
0,0.016840929123211237,0.0006682663519555411,0.015137177538761842,0.01926549868569689,-0.016840921150431336,0.0006682660355869774,-0.01926548956508484,-0.01513717037256666,-1.1587449667501808e-05,4.5980258340362647e-07,-1.3255681720799745e-05,-1.0415178494914085e-05,-1.1587449667501808e-05,4.5980258340362647e-07,-1.3255681720799745e-05,-1.0415178494914085e-05,3.310305084745763,36.08163650844099,-85.42,65.09,0.12876681768301237,0.0004659849365010287,0.1278441700970836,0.12962339961053687,3.1621178984902956e-05,2.0566802693317995e-05,8.404430425320287e-06,7.753365476803794e-05,2.1378080973811602e-07,3.445316162246881e-08,1.5430638195283383e-07,2.8630947909448175e-07,-0.5027884312585463,0.00016913937397156247,-0.5031612783946583,-0.502628691208757,-0.11735258268067618,1.4104760131237428,-2.4139404296875,2.532958984375,32.93421052631578,0.008153649149911627,32.93,32.95,0.13559322033898305,-0.00021052631578950657,0,1,0
0,0.01781035846160824,0.0004561482303527739,0.015825231063251018,0.01926549868569689,-0.017810350029884212,0.0004561480144045074,-0.01926548956508484,-0.01582522357131969,-1.2254468308972908e-05,3.138541004158662e-07,-1.3255681720799745e-05,-1.088859569922836e-05,-1.2254468308972908e-05,3.138541004158662e-07,-1.3255681720799745e-05,-1.088859569922836e-05,-0.9476271186440669,32.94677344553073,-91.99,47.41,0.12854234016751026,0.0007257828906823409,0.12686229174869307,0.12952958539835163,3.254852105689236e-06,1.9367997584196557e-06,9.914308041576575e-07,7.452453553457003e-06,9.323308063823664e-08,5.2615835533715596e-08,4.4185400577267264e-08,2.0357665873592412e-07,-0.5031055197859112,0.0003043838861190521,-0.5036572374451241,-0.5026857297767187,0.23076847181755158,1.2394441983980609,-1.94244384765625,2.37884521484375,32.93444444444444,0.008314794192832278,32.93,32.95,0.13559322033898305,0.0,0,1,0
0,0.017070280298040967,0.0010717532716894916,0.013073016965294318,0.021329659259164413,-0.017070272216682343,0.0010717527643034146,-0.02132964916134393,-0.01307301077630757,-1.174525540227323e-05,7.374229177513646e-07,-1.4675933333742575e-05,-8.994926881971256e-06,-1.174525540227323e-05,7.374229177513646e-07,-1.4675933333742575e-05,-8.994926881971256e-06,-1.6558983050847464,43.26169448780017,-91.9,75.72,0.12711455371182132,0.0009762201230178298,0.12532725882517295,0.1285751171768151,3.9616947979269964e-07,2.1603510398223163e-07,1.5958143152740438e-07,8.828738230861453e-07,5.4799332900603056e-08,1.450966593756284e-08,3.3422852431310725e-08,7.672319224963067e-08,-0.5043523803344676,0.00034986988508831654,-0.5048547067357556,-0.5037325436455095,-0.2161854254104955,1.7560500108253965,-2.86712646484375,2.81829833984375,32.93842105263157,0.009874559494366657,32.93,32.95,0.13559322033898305,-0.0001403508771930044,0,1,0
0,0.016906458030305414,0.0007355601578287895,0.014449124014272667,0.018577445161207715,-0.016906450026503036,0.0007355598096022033,-0.018577436366331808,-0.01444911717381363,-1.1632537020293632e-05,5.061042798709657e-07,-1.2782264516485466e-05,-9.941761290599808e-06,-1.1632537020293632e-05,5.061042798709657e-07,-1.2782264516485466e-05,-9.941761290599808e-06,0.13238095238095396,36.32765895588952,-81.94,50.08,0.12693858244962575,0.0007374328665264777,0.1260886640938549,0.12843875680140368,1.32294171475348e-07,7.606696056587683e-09,1.2246427473226516e-07,1.513895134433932e-07,1.0940219932775885e-07,3.964439429340769e-08,7.225406454219294e-08,2.452830786395156e-07,-0.5049122653840663,6.041411707284169e-05,-0.504973321948085,-0.5047665779120158,0.27290703936782723,1.0275649069254529,-2.08740234375,2.252197265625,32.95666666666668,0.01885618083164086,32.93,32.97,0.13605442176870747,0.0016511867905056408,0,1,0
0,0.015313839930184722,0.00046032245392025364,0.013761070489783492,0.017201338112229368,-0.015313832680354581,0.0004603222359958384,-0.01720132996882575,-0.013761063975060599,-1.0536731560886683e-05,3.167261869340833e-07,-1.1835430107856916e-05,-9.468344086285531e-06,-1.0536731560886683e-05,3.167261869340833e-07,-1.1835430107856916e-05,-9.468344086285531e-06,-1.1624406779661005,29.28591758778177,-65.31,60.49,0.12803776916660167,0.0010671581127954517,0.12644751581641092,0.13007500006287223,0.0005435429936685546,0.00035476876216708903,1.4178893679964575e-07,0.0009594305564263312,0.0005808924317439149,0.00239315639785868,4.9690989411751985e-08,0.010448128373555816,-0.5043285674344449,0.00026180280625933187,-0.5047299235186724,-0.5038836297287198,0.10155214125644779,1.296370107468417,-2.32086181640625,2.21099853515625,32.93444444444444,0.015713484026370177,32.91,32.95,0.13559322033898305,0.0008255933952529671,0,1,0
0,0.016756677671232935,0.001114384681961812,0.014449124014272667,0.01788939163671854,-0.016756669738339124,0.0011143841543933086,-0.01788938316757878,-0.01444911717381363,-1.1529480213912298e-05,7.66755582070006e-07,-1.230884731217119e-05,-9.941761290599808e-06,-1.1529480213912298e-05,7.66755582070006e-07,-1.230884731217119e-05,-9.941761290599808e-06,0.8468474576271173,35.669374622968654,-89.79,57.94,0.12784740370232378,0.0009687385540486463,0.12627232952035597,0.1301528613471683,0.00018172081264600657,0.00011684347244039485,4.784594519140005e-05,0.0004377676743490171,4.91606780819405e-08,1.671005541985186e-08,3.438724483720984e-08,9.711229299273066e-08,-0.5034056911499046,0.0002385924772571495,-0.503829670868017,-0.5030527397004319,-0.13546908167988136,0.9754487072095764,-2.01263427734375,1.55792236328125,32.94789473684211,0.014355980733669265,32.93,32.97,0.13559322033898305,0.0017192982456139796,0,1,0
0,0.0167051906728018,0.0005775229892560407,0.015137177538761842,0.01788939163671854,-0.016705182764282737,0.0005775227158469156,-0.01788938316757878,-0.01513717037256666,-1.1494054436718702e-05,3.9736635199100823e-07,-1.230884731217119e-05,-1.0415178494914085e-05,-1.1494054436718702e-05,3.9736635199100823e-07,-1.230884731217119e-05,-1.0415178494914085e-05,1.8034013605442178,31.016399458504562,-75.63,46.36,0.12851503556336885,0.0006096013460218469,0.12756874842981644,0.1292398469915142,1.798936687002822e-05,1.1043439685948473e-05,5.326530872283851e-06,4.223329863752201e-05,2.3404802344907695e-07,1.41173866254559e-07,1.1242849899196009e-07,6.115426922010173e-07,-0.5028984337648147,5.3547302078408404e-05,-0.5030245102693499,-0.5028494412710398,0.24369857447318935,1.076368205323873,-1.7059326171875,2.09808349609375,32.94888888888889,0.01242259987499876,32.93,32.97,0.13605442176870747,0.000928792569659258,0,1,0
0,0.017224583163732366,0.0007853800842043422,0.015137177538761842,0.022017712783653588,-0.017224575009324193,0.0007853797123921619,-0.02201770236009696,-0.01513717037256666,-1.1851423932326982e-05,5.40383023347162e-07,-1.514935053805685e-05,-1.0415178494914085e-05,-1.1851423932326982e-05,5.40383023347162e-07,-1.514935053805685e-05,-1.0415178494914085e-05,-0.430915254237287,34.97563083124686,-76.72,78.19,0.12844824167265625,0.0007383417646789229,0.1272699664833621,0.1298554458304047,2.0333682680711296e-06,1.2356311565897721e-06,5.986306772984992e-07,4.736341156007327e-06,9.622422686031278e-08,6.905679339048367e-08,4.3478996949656204e-08,2.458650013806177e-07,-0.5031920189671509,0.00022926415184035452,-0.5036285020193274,-0.5028924481177824,-0.004926922895180676,1.7461158742241363,-2.54669189453125,5.2032470703125,32.95105263157895,0.00446593756538783,32.95,32.97,0.13559322033898305,-0.0003157894736841477,0,1,0
0,0.016218404505816273,0.0005560312148406844,0.013761070489783492,0.01788939163671854,-0.016218396827749972,0.0005560309516061308,-0.01788938316757878,-0.013761063975060599,-1.1159119815979373e-05,3.825788748582892e-07,-1.230884731217119e-05,-9.468344086285531e-06,-1.1159119815979373e-05,3.825788748582892e-07,-1.230884731217119e-05,-9.468344086285531e-06,0.48155932203389745,36.44383533383529,-80.66,78.19,0.1269908729824562,0.0010849447017405262,0.12465033001893794,0.128766286214103,2.583782738363756e-07,1.2758339236317605e-07,1.1384073986345436e-07,5.359357466213854e-07,4.768269572235565e-08,2.0394770126816963e-08,3.682198487357592e-08,1.215850171822942e-07,-0.5042569720793668,0.00034809145062998377,-0.5048207963323553,-0.5036909268370956,-0.03832214336531376,2.3707007481558597,-3.1097412109375,5.38482666015625,32.95888888888889,0.009938079899997088,32.95,32.97,0.13559322033898305,0.0009907120743032085,0,1,0
0,0.015769442939643795,0.0005740727734589534,0.014449124014272667,0.017201338112229368,-0.01576943547412348,0.0005740725016832179,-0.01720132996882575,-0.01444911717381363,-1.0850210520500178e-05,3.949924210992923e-07,-1.1835430107856916e-05,-9.941761290599808e-06,-1.0850210520500178e-05,3.949924210992923e-07,-1.1835430107856916e-05,-9.941761290599808e-06,-5.015830508474574,34.4711600593261,-78.9,44.77,0.12705905617232885,0.0011361710378165915,0.12437424508664253,0.128945750091648,1.6520388961268166e-07,2.695568783684092e-08,1.1263023049981148e-07,1.9582096518156768e-07,1.5357631178023245e-07,4.2878307676038426e-08,7.194399350803504e-08,2.2123526500251655e-07,-0.5053064982207999,0.00022144647997159327,-0.5055959394004467,-0.504882339286732,-0.7664488799518746,1.8799754322290634,-4.26177978515625,2.99224853515625,32.96578947368422,0.00815364914990873,32.95,32.97,0.10847457627118644,-7.017543859647726e-05,0,1,0
0,0.015113774357656746,0.0006589564512860385,0.012384963440805145,0.016513284587740193,-0.015113767202541048,0.0006589561393249377,-0.01651327677007272,-0.01238495757755454,-1.039907586891702e-05,4.533968795004706e-07,-1.1362012903542639e-05,-8.521509677656977e-06,-1.039907586891702e-05,4.533968795004706e-07,-1.1362012903542639e-05,-8.521509677656977e-06,3.280510204081633,33.684897513395995,-83.59,56.93,0.12698319116091195,0.0016115212466077274,0.12309396397496991,0.12982360156597922,0.0006631488284958635,0.0003429133993971157,1.79020829648295e-07,0.0010793788267021113,0.0006534957222771161,0.0026938048129728667,5.626694006034827e-08,0.011760337481739033,-0.505639692362722,1.6185433141104907e-05,-0.5056580026208334,-0.505608755394982,1.2298380470749166,1.4468811694799473,-1.27716064453125,3.52630615234375,32.97000000000001,1.4210854715202004e-14,32.97,32.97,0.13605442176870747,0.0,0,1,0
0,0.015188664537192982,0.0008266326910848042,0.012384963440805145,0.01788939163671854,-0.015188657346622987,0.0008266322997429444,-0.01788938316757878,-0.01238495757755454,-1.045060427210768e-05,5.687669980307059e-07,-1.230884731217119e-05,-8.521509677656977e-06,-1.045060427210768e-05,5.687669980307059e-07,-1.230884731217119e-05,-8.521509677656977e-06,0.33935593220338944,38.577501697392165,-116.21,54.98,0.12645875736659662,0.0008576078337001367,0.12503810077758273,0.12777569644866515,0.00016674890239236237,0.00010267940056118036,4.75085024723492e-05,0.0003891516924628785,5.32407926688538e-08,1.2355846514839282e-08,4.144041599067269e-08,9.211926150706762e-08,-0.5055253349159942,4.087575559978412e-05,-0.5055996524979964,-0.5054737518881942,-0.03376675806095834,1.4125566521681592,-1.99737548828125,2.37884521484375,32.97000000000001,1.4210854715202004e-14,32.97,32.97,0.10847457627118644,0.0,0,1,0
0,0.0147187666117076,0.0005635091447526772,0.013761070489783492,0.015825231063251018,-0.014718759643595222,0.0005635088779779423,-0.01582522357131969,-0.013761063975060599,-1.0127289654452736e-05,3.8772408601845376e-07,-1.088859569922836e-05,-9.468344086285531e-06,-1.0127289654452736e-05,3.8772408601845376e-07,-1.088859569922836e-05,-9.468344086285531e-06,-1.367254237288135,35.90786916615921,-112.62,49.3,0.12669080904411537,0.0013713633339087366,0.12413561504268593,0.12953883470674968,1.716151432934179e-05,1.111228772873575e-05,4.543518266477218e-06,4.193380422984108e-05,1.4966642120941064e-07,1.6834826769855917e-07,4.78284025651947e-08,7.512955101903265e-07,-0.5055304663915475,5.392018525026445e-05,-0.5056442153617676,-0.5054730513095791,0.08331043252873953,1.1395450967054834,-1.85394287109375,2.04620361328125,32.96789473684212,0.006137844099835937,32.95,32.97,0.10847457627118644,-0.0005964912280700568,0,1,0
0,0.015062287359225596,0.0012692898179166704,0.012384963440805145,0.018577445161207715,-0.015062280228484676,0.0012692892170134591,-0.018577436366331808,-0.01238495757755454,-1.036365009172342e-05,8.733385059088393e-07,-1.2782264516485466e-05,-8.521509677656977e-06,-1.036365009172342e-05,8.733385059088393e-07,-1.2782264516485466e-05,-8.521509677656977e-06,1.8719661016949107,34.25620859524424,-81.32,52.52,0.12621984270512923,0.0011459353140506844,0.12350495974054046,0.12799208741341409,1.7396436541840562e-06,1.0413113904911348e-06,5.417423269412761e-07,4.018415817509765e-06,5.411265133057138e-08,6.582566686958528e-09,4.366883405287553e-08,6.960029882904976e-08,-0.505903157414695,0.00016376702997630894,-0.5061994056785357,-0.5056645019179913,-0.28511447415306,1.6593525109413891,-4.64935302734375,2.2705078125,32.963333333333345,0.009428090415818758,32.95,32.97,0.10847457627118644,-0.0004953560371516042,0,1,0
0,0.01487506191038501,0.0005462926118069023,0.013073016965294318,0.017201338112229368,-0.014875054868279784,0.000546292353182764,-0.01720132996882575,-0.01307301077630757,-1.0234829083746759e-05,3.75878201061721e-07,-1.1835430107856916e-05,-8.994926881971256e-06,-1.0234829083746759e-05,3.75878201061721e-07,-1.1835430107856916e-05,-8.994926881971256e-06,-2.6528911564625846,37.99770194637881,-86.64,52.28,0.12604127329226852,0.000914148749633478,0.12430275998307602,0.1277864178453005,0.00045941917745978154,0.00044032653031227597,2.895409860292661e-07,0.0010322930709867019,0.0005923042339927179,0.00242172826751698,5.3988526545743244e-08,0.010860340221127352,-0.5066763700739622,0.00027170733124270974,-0.507127866780688,-0.5062424607310263,0.28675404629966084,1.5709744523486793,-4.32281494140625,2.911376953125,32.97315789473686,0.0072928455055543085,32.97,32.99,0.13605442176870747,0.0008421052631580263,0,1,0
0,0.01485358791042506,0.00033867649163397896,0.014449124014272667,0.015137177538761842,-0.014853580878486046,0.0003386763312988151,-0.01513717037256666,-0.01444911717381363,-1.0220053836379176e-05,2.3302733309209072e-07,-1.0415178494914085e-05,-9.941761290599808e-06,-1.0220053836379176e-05,2.3302733309209072e-07,-1.0415178494914085e-05,-9.941761290599808e-06,0.7536610169491517,38.550130745501505,-90.8,46.05,0.12572859133234826,0.0010973011071309842,0.12317712906856924,0.12749348592594084,0.00029260538727861075,0.00017478081382853332,8.529845506629837e-05,0.0006606137333622477,9.709843537219155e-08,6.33254217162054e-08,4.5986397563839085e-08,3.135712564900778e-07,-0.5075496770335699,0.00021132740716536892,-0.5078618189034658,-0.5071774739883161,0.03214524541624651,0.9398164122923578,-1.55792236328125,1.93939208984375,32.972222222222236,0.014740554623801699,32.95,32.99,0.10847457627118644,-0.0013209494324043951,0,1,0
0,0.014500611012703779,0.00018103839296812122,0.014449124014272667,0.015137177538761842,-0.014500604147870008,0.00018103830726149133,-0.01513717037256666,-0.01444911717381363,-9.977187067793428e-06,1.2456398640810318e-07,-1.0415178494914085e-05,-9.941761290599808e-06,-9.977187067793428e-06,1.2456398640810318e-07,-1.0415178494914085e-05,-9.941761290599808e-06,0.3545762711864398,38.3097573410785,-87.38,47.55,0.12448520383984693,0.0013567300285682016,0.12124590098030394,0.12619319540190946,3.1871221078175644e-05,1.98381349477579e-05,9.032647397004772e-06,7.529470397855319e-05,4.69150957164457e-08,1.5811904933323038e-08,2.937588578812156e-08,7.562759962864035e-08,-0.5079958555795244,4.5384063214951175e-05,-0.5080351495914861,-0.5078875782914666,-0.15331082487564962,0.837692023051486,-1.61895751953125,1.67694091796875,32.965555555555575,0.014229164972072203,32.95,32.99,0.10847457627118644,-0.001197110423116707,0,1,0
0,0.014514210158481072,0.000475473536874172,0.012384963440805145,0.016513284587740193,-0.014514203287209199,0.0004754733117769792,-0.01651327677007272,-0.01238495757755454,-9.986543999116052e-06,3.271509330898471e-07,-1.1362012903542639e-05,-8.521509677656977e-06,-9.986543999116052e-06,3.271509330898471e-07,-1.1362012903542639e-05,-8.521509677656977e-06,-1.2473559322033914,36.60473670088488,-86.67,40.98,0.12498285645339177,0.0009211862885652491,0.12308819641795488,0.12654718642097032,3.3411886391326914e-06,2.068045012023056e-06,9.900975945502917e-07,7.980376374485536e-06,1.3347577883462409e-07,6.487374144785097e-08,7.936343969261765e-08,3.063139468469198e-07,-0.5079048530880481,7.940815410866785e-05,-0.5080165594033011,-0.5077622267280505,0.32711407682735927,0.9206295661157062,-1.64947509765625,1.67388916015625,32.97736842105264,0.011626695807566477,32.95,32.99,0.10847457627118644,0.0001754385964911433,0,1,0
0,0.015876718061682137,0.0005206668705936921,0.015137177538761842,0.017201338112229368,-0.015876710545376004,0.0005206666241012121,-0.01720132996882575,-0.01513717037256666,-1.092402147642195e-05,3.5824633619678065e-07,-1.1835430107856916e-05,-1.0415178494914085e-05,-1.092402147642195e-05,3.5824633619678065e-07,-1.1835430107856916e-05,-1.0415178494914085e-05,4.171802721088438,40.556249279164554,-81.0,111.36,0.1252146999127413,0.001010351878832486,0.12276470185404362,0.12625214647480107,4.3496441442276235e-07,2.0755021056472298e-07,2.1290959856699185e-07,8.88669328989579e-07,8.769252588401892e-08,3.354860355722718e-08,4.71936133751913e-08,1.524399108346067e-07,-0.5076035108501924,8.22090323957541e-05,-0.507744366971633,-0.5074757269366698,-0.2562496857370987,1.2373943013564395,-2.59246826171875,1.92718505859375,32.98333333333334,0.009428090415822106,32.97,32.99,0.10884353741496598,0.0001651186790505934,0,1,0
0,0.014664433280439355,0.000833284715513598,0.013073016965294318,0.015825231063251018,-0.014664426338049272,0.0008332843210225573,-0.01582522357131969,-0.01307301077630757,-1.0089905449773014e-05,5.733439425503168e-07,-1.088859569922836e-05,-8.994926881971256e-06,-1.0089905449773014e-05,5.733439425503168e-07,-1.088859569922836e-05,-8.994926881971256e-06,-1.7104067796610147,35.42206922681264,-91.3,41.64,0.12535277812885126,0.0013680085256343795,0.12205996089530577,0.12724723380178093,1.528496192882565e-07,3.135776393929473e-08,1.1169986433418549e-07,2.0494919458453453e-07,7.917665330901451e-08,2.723325907425438e-08,4.503869479995397e-08,1.3368773605275286e-07,-0.5073644806451542,5.475709149064957e-05,-0.5074626419089047,-0.5072834576687122,0.41045432646872093,1.1862404180790944,-1.82342529296875,2.37884521484375,32.98789473684211,0.010041465278073777,32.97,33.0,0.10847457627118644,0.0008070175438598625,0,1,0
0,0.01310556003739855,0.0003028286945069518,0.012384963440805145,0.013761070489783492,-0.013105553833005313,0.00030282855114274006,-0.013761063975060599,-0.01238495757755454,-9.017318236229371e-06,2.0836215328750797e-07,-9.468344086285531e-06,-8.521509677656977e-06,-9.017318236229371e-06,2.0836215328750797e-07,-9.468344086285531e-06,-8.521509677656977e-06,0.4197627118644072,32.346581716732494,-83.49,42.5,0.1252485314019943,0.000739940237067545,0.12366404732551739,0.12650195044337642,1.0161503701842012e-07,1.1806759576352457e-08,8.86142960838912e-08,1.2964850778635266e-07,9.522765482276176e-08,3.724430157616356e-08,4.907224164513722e-08,1.567387251953799e-07,-0.5072386413216011,1.9055485629475702e-05,-0.5072767574930817,-0.5072144730509903,0.09918733668408702,1.191816553261677,-1.9073486328125,2.24761962890625,32.99222222222223,0.004157397096414663,32.99,33.0,0.10847457627118644,0.0004953560371516042,0,1,0
0,0.01409339566147551,0.0007104089496659976,0.013073016965294318,0.015825231063251018,-0.014093388989424313,0.0007104086133464167,-0.01582522357131969,-0.01307301077630757,-9.697001375444152e-06,4.887989188347059e-07,-1.088859569922836e-05,-8.994926881971256e-06,-9.697001375444152e-06,4.887989188347059e-07,-1.088859569922836e-05,-8.994926881971256e-06,-1.2776949152542363,40.16922660709325,-85.39,62.6,0.12549066581059806,0.0007456680191015532,0.12385276116752557,0.1265772182044569,1.0586674319777929e-07,2.051183531753173e-08,8.023444868152076e-08,1.3552191244680452e-07,5.456102947122346e-08,1.0985138100416439e-08,4.09402112993539e-08,8.40495873505331e-08,-0.5071994180935181,9.74248875871757e-06,-0.5072130093714136,-0.5071794931173736,-0.3330121856765179,1.0372969898055027,-2.32391357421875,1.5289306640625,32.985789473684214,0.008153649149911627,32.97,32.99,0.10847457627118644,0.0006315789473685197,0,1,0
0,0.014369553198515397,0.0005532266492186142,0.013073016965294318,0.015137177538761842,-0.014369546395726532,0.0005532263873117865,-0.01513717037256666,-0.01307301077630757,-9.887012362209753e-06,3.806491854244568e-07,-1.0415178494914085e-05,-8.994926881971256e-06,-9.887012362209753e-06,3.806491854244568e-07,-1.0415178494914085e-05,-8.994926881971256e-06,1.4041156462585058,35.31889348695807,-80.72,59.02,0.12543275153265546,0.00052948916835855,0.12401050832956231,0.12609880479707414,1.2027900157630467e-07,2.9000900813048762e-08,8.008677230924252e-08,1.594540284874428e-07,1.2945772688362951e-07,2.188771672872835e-08,7.656774658951876e-08,1.5795025111935718e-07,-0.5071185637535753,4.225535187441489e-05,-0.5071756698247238,-0.5070391901815551,0.06679790487360422,1.724164835967386,-2.79998779296875,3.14483642578125,32.98666666666667,0.00942809041582155,32.97,33.0,0.10884353741496598,0.0008255933952528497,0,1,0
0,0.014170183396236493,0.0005048405645073292,0.013073016965294318,0.015137177538761842,-0.014170176687832664,0.0005048403255072904,-0.01513717037256666,-0.01307301077630757,-9.749835396958904e-06,3.4735700082481165e-07,-1.0415178494914085e-05,-8.994926881971256e-06,-9.749835396958904e-06,3.4735700082481165e-07,-1.0415178494914085e-05,-8.994926881971256e-06,-0.3098983050847464,36.85817403061382,-87.01,50.27,0.12553420115774425,0.0010546711303011508,0.12293713265557428,0.12674604311858692,1.2445157100099795e-07,2.4760392508147566e-08,8.666878269773639e-08,1.5934835502425293e-07,6.156747802177011e-08,1.7008881260484987e-08,3.975247890270526e-08,9.384562154305152e-08,-0.5069425066206728,4.60884672570529e-05,-0.5070276197523591,-0.5068832205980808,0.2824632417996626,1.014711665151181,-1.91802978515625,1.9989013671875,32.982222222222234,0.011331154474651786,32.97,33.0,0.10847457627118644,-0.0006604747162022562,0,1,0
0,0.014350830653631328,0.00040922789364055865,0.013073016965294318,0.015137177538761842,-0.014350823859706045,0.0004092276999051704,-0.01513717037256666,-0.01307301077630757,-9.87413026141209e-06,2.8157042793809784e-07,-1.0415178494914085e-05,-8.994926881971256e-06,-9.87413026141209e-06,2.8157042793809784e-07,-1.0415178494914085e-05,-8.994926881971256e-06,0.8608474576271195,36.467045113112974,-85.24,53.09,0.12545687507173023,0.0012884119391282046,0.12248206686792208,0.12703328841278352,8.508774475867268e-08,2.8146264838463483e-09,7.941212430283797e-08,8.840306669318669e-08,7.514647264134801e-08,4.510465465562898e-08,4.611029684576912e-08,2.547141541733114e-07,-0.5069634647265928,8.120185686956896e-05,-0.5071403100995564,-0.5068818429115944,0.27506712352667495,1.026922580835298,-1.80206298828125,2.01568603515625,32.98052631578949,0.0127624796347189,32.97,33.0,0.13559322033898305,-0.0017894736842107187,0,1,0
0,0.013784473670888558,0.0006638257762311801,0.011696909916315968,0.015825231063251018,-0.013784467145086177,0.0006638254619648604,-0.01582522357131969,-0.01169690437880151,-9.484446712282625e-06,4.5674723251863015e-07,-1.088859569922836e-05,-8.048092473342702e-06,-9.484446712282625e-06,4.5674723251863015e-07,-1.088859569922836e-05,-8.048092473342702e-06,-2.100612244897962,35.81300109239945,-91.72,47.76,0.1257576104116288,0.0006513107603412237,0.12426263292928601,0.12687608716857776,0.00015712181291065486,9.14514485561289e-05,9.715474665763022e-08,0.00026532888246822686,0.00016070762204558776,0.0006593238415498347,5.1159143943727003e-08,0.0028791599176939933,-0.5075125339979942,0.00021755193726954498,-0.5078770141563711,-0.507173131095405,-0.2592063127617091,1.3115883328545,-2.14080810546875,2.28729248046875,32.98555555555557,0.011653431646335862,32.97,33.0,0.13605442176870747,-0.0004953560371517216,0,1,0
0,0.01256162583222804,0.0007508403512611248,0.011008856391826794,0.014449124014272667,-0.012561619885342481,0.0007508399958006369,-0.01444911717381363,-0.01100885118004848,-8.643062743629555e-06,5.166178608623402e-07,-9.941761290599808e-06,-7.574675269028425e-06,-8.643062743629555e-06,5.166178608623402e-07,-9.941761290599808e-06,-7.574675269028425e-06,2.433559322033898,39.018614313228056,-85.23,74.28,0.12445143893605372,0.0015065205738331578,0.12120529524438997,0.12672692284228015,4.4552004599334446e-05,2.8737581124919483e-05,1.1724472674629563e-05,0.00010777324432959546,4.853453640062807e-08,1.3783082447932119e-08,3.1706535190759166e-08,7.597863575748917e-08,-0.5082336216105359,0.0001681232267773476,-0.5084563078595865,-0.5079197922979,0.13330757765852783,1.417779354165973,-2.496337890625,2.50396728515625,32.98473684210527,0.01186255544166894,32.97,33.0,0.13559322033898305,0.0005964912280703808,0,1,0
0,0.012890472152674774,0.00030377293013993063,0.012384963440805145,0.013073016965294318,-0.012890466050107753,0.0003037727863287019,-0.01307301077630757,-0.01238495757755454,-8.869326399194018e-06,2.0901183732758505e-07,-8.994926881971256e-06,-8.521509677656977e-06,-8.869326399194018e-06,2.0901183732758505e-07,-8.994926881971256e-06,-8.521509677656977e-06,-0.9485762711864387,31.76537918210903,-74.63,42.64,0.12485410123446775,0.0013187852293350196,0.12158254658405074,0.1264995907579987,0.00026906958643505366,0.00023664017124899712,5.00855798107755e-06,0.0005645015849288588,0.00034047034315002234,0.0013995366802483462,9.54759607962527e-08,0.006110898119652732,-0.508421211110292,5.8524110515701954e-05,-0.5084771494303745,-0.5082939436030086,-0.1788279894084025,1.1175698404285057,-2.69927978515625,1.70745849609375,32.98777777777778,0.010304020550551456,32.97,33.0,0.13559322033898305,-0.0007430340557276996,0,1,0
0,0.012696447130945511,0.0003424841041545038,0.012384963440805145,0.013073016965294318,-0.012696441120233258,0.00034248394201675316,-0.01307301077630757,-0.01238495757755454,-8.735826925556006e-06,2.3564717182617503e-07,-8.994926881971256e-06,-8.521509677656977e-06,-8.735826925556006e-06,2.3564717182617503e-07,-8.994926881971256e-06,-8.521509677656977e-06,-0.5653898305084756,34.82476673386875,-77.17,41.82,0.1252087834103781,0.0006676294950672308,0.1241135481301973,0.1269356354131743,0.00015293945305127162,9.627481869997196e-05,4.094983368090172e-05,0.00035956954844345863,5.705941268012378e-08,1.1025485705572124e-08,3.962166678886554e-08,8.691044176608459e-08,-0.5080201127814771,0.00015642886422525967,-0.5082699776570508,-0.5077634754132396,1.1194891728479277,1.787440492417853,-1.52740478515625,4.49676513671875,32.99473684210527,0.0049930699897385526,32.99,33.0,0.13559322033898305,-0.000333333333333267,0,1,0
0,0.014383595107178453,0.0007753484849373029,0.013073016965294318,0.015137177538761842,-0.01438358829774192,0.0007753481178742526,-0.01513717037256666,-0.01307301077630757,-9.896673937807988e-06,5.33480752650521e-07,-1.0415178494914085e-05,-8.994926881971256e-06,-9.896673937807988e-06,5.33480752650521e-07,-1.0415178494914085e-05,-8.994926881971256e-06,-0.6043877551020401,36.586155472312264,-108.46,49.14,0.12482614881484924,0.00177447503308361,0.1207906209055708,0.1276270342038513,1.534285533775923e-05,9.50074775078395e-06,4.401528175994671e-06,3.61475629218099e-05,8.568594815584178e-08,2.923417011743675e-08,4.420961153043211e-08,1.606160013889208e-07,-0.5075597158548582,9.603714259861579e-05,-0.5077369863817796,-0.5074250161544585,-1.0305049697459483,1.7386106641486563,-4.16412353515625,1.68609619140625,32.991666666666674,0.012133516482134604,32.97,33.0,0.10884353741496598,-0.000464396284829629,0,1,0
0,0.014673794552881344,0.00032265849596729433,0.014449124014272667,0.015137177538761842,-0.014673787606059526,0.00032265834321531936,-0.01513717037256666,-0.01444911717381363,-1.0096346500171845e-05,2.2200610515365365e-07,-1.0415178494914085e-05,-9.941761290599808e-06,-1.0096346500171845e-05,2.2200610515365365e-07,-1.0415178494914085e-05,-9.941761290599808e-06,-0.9771525423728828,29.156646700319296,-77.57,39.95,0.1253361675213898,0.0011771004646862876,0.1228068415554454,0.12704847472187392,1.7034815144902162e-06,1.0037007800991968e-06,5.379602557343853e-07,3.897016338866533e-06,6.548258375260086e-08,1.6834979827630746e-08,4.036697004658925e-08,9.314732589894468e-08,-0.5073895669819507,1.3022693677443443e-05,-0.5074153463670094,-0.507374991457004,0.1533212404313237,1.0668092974129912,-1.42974853515625,2.32391357421875,32.99666666666667,0.004714045207909377,32.99,33.0,0.10847457627118644,0.0004953560371516042,0,1,0
0,0.014583945312990121,0.0009979141490695088,0.013073016965294318,0.019953552210186066,-0.014583938408704405,0.0009979136766401172,-0.01995354276383787,-0.01307301077630757,-1.003452547252628e-05,6.866176972916295e-07,-1.372909892511402e-05,-8.994926881971256e-06,-1.003452547252628e-05,6.866176972916295e-07,-1.372909892511402e-05,-8.994926881971256e-06,2.2806101694915264,39.771165889848675,-84.12,55.55,0.12506700185700728,0.0009740277723472869,0.12231500616133537,0.1261822945386391,2.6491100386586995e-07,8.756350696405236e-08,1.8658192404770319e-07,4.825959352062404e-07,1.2254500926510315e-07,7.833195749531115e-08,5.07109959948228e-08,2.8371400754511654e-07,-0.5075758335660392,0.00010803199389732307,-0.5077694759887199,-0.5074227854080865,0.34655010138196923,0.7988976173010904,-1.61285400390625,1.708984375,32.99631578947369,0.004823763889426241,32.99,33.0,0.10847457627118644,0.0007368421052630112,0,1,0
0,0.01413084075124364,0.0005966663856745913,0.012384963440805145,0.015137177538761842,-0.01413083406146528,0.0005966661032026589,-0.01513717037256666,-0.01238495757755454,-9.722765577039481e-06,4.105380208960955e-07,-1.0415178494914085e-05,-8.521509677656977e-06,-9.722765577039481e-06,4.105380208960955e-07,-1.0415178494914085e-05,-8.521509677656977e-06,-3.6952881355932194,40.47462124907359,-100.71,50.49,0.12501050183987406,0.0003685108344055811,0.12409457695316577,0.12557169019363432,1.7307409314742277e-07,2.3119449811076757e-08,1.4086687700150922e-07,2.134007265266472e-07,1.0020133034586054e-07,7.850243446309358e-09,8.619705422578492e-08,1.1153772508568846e-07,-0.507972456532771,9.933958893150718e-05,-0.5081107596373509,-0.507793542170587,-0.13967780936700086,1.3234549632092147,-2.04315185546875,2.7191162109375,32.99333333333334,0.004714045207909379,32.99,33.0,0.10847457627118644,0.0007430340557274065,0,1,0
0,0.013761070489783494,0.0003931734425652425,0.013073016965294318,0.014449124014272667,-0.013761063975060555,0.00039317325643030264,-0.01444911717381363,-0.01307301077630757,-9.468344086285543e-06,2.7052411675101495e-07,-9.941761290599808e-06,-8.994926881971256e-06,-9.468344086285543e-06,2.7052411675101495e-07,-9.941761290599808e-06,-8.994926881971256e-06,3.8243197278911585,37.56621178765094,-82.27,55.65,0.12502751808575358,0.0008921805685454101,0.12353760634186299,0.12666368316172721,1.2344289959326673e-07,1.0903569923611073e-08,9.776071403593374e-08,1.3927026166586882e-07,7.277458218954639e-08,2.5951155493568555e-08,3.8211100351966266e-08,1.1873251474979125e-07,-0.5080659882922255,7.150804194688154e-05,-0.5081317208968306,-0.5079076367768618,-0.029676333878391473,1.0969645783382027,-2.18963623046875,1.80511474609375,33.0,0.0,33.0,33.0,0.13605442176870747,0.0,0,1,0
0,0.01384010366489372,0.00032513171873420067,0.013073016965294318,0.015137177538761842,-0.013840097112755162,0.0003251315648113602,-0.01513717037256666,-0.01307301077630757,-9.522723089483814e-06,2.2370781318403513e-07,-1.0415178494914085e-05,-8.994926881971256e-06,-9.522723089483814e-06,2.2370781318403513e-07,-1.0415178494914085e-05,-8.994926881971256e-06,-2.0125423728813567,32.73441894559656,-80.8,42.08,0.1247687805026466,0.0007138693024042805,0.12357069909974149,0.1259181135714684,7.406127412805266e-08,8.693622533736694e-09,6.591729777636205e-08,9.335019309982069e-08,4.906634417406109e-08,6.726090926524685e-09,3.923445921161439e-08,5.924410761334589e-08,-0.5076285358226721,0.00014972054564679215,-0.5078794298540621,-0.5073998166534489,0.26364896077751704,0.7576238337520818,-1.385498046875,1.60675048828125,32.99777777777778,0.004157397096414664,32.99,33.0,0.10847457627118644,0.0,0,1,0
0,0.013835960669319717,0.00036891015702031143,0.013073016965294318,0.015137177538761842,-0.01383595411914253,0.0003689099823720201,-0.01513717037256666,-0.01307301077630757,-9.51987248947621e-06,2.5382969342299236e-07,-1.0415178494914085e-05,-8.994926881971256e-06,-9.51987248947621e-06,2.5382969342299236e-07,-1.0415178494914085e-05,-8.994926881971256e-06,1.3175593220338986,34.00117675145626,-78.42,44.65,0.12500701892873595,0.0006800126628521722,0.12398991333191861,0.12666826969050657,1.127780992903551e-07,1.204622730750308e-07,6.801091352993158e-08,5.765627989128467e-07,7.448202198279971e-07,2.0490522732738864e-06,4.603608498516379e-08,8.939279475220181e-06,-0.5073542947938298,4.7314372022318355e-05,-0.5074769974943681,-0.5073080977561473,-0.09815524980365731,0.8180361976116434,-1.76239013671875,1.42059326171875,33.0,0.0,33.0,33.0,0.10847457627118644,0.0,0,1,0
0,0.01394703090180757,0.0005158516355456627,0.012384963440805145,0.015825231063251018,-0.01394702429904789,0.0005158513913327972,-0.01582522357131969,-0.01238495757755454,-9.59629468204616e-06,3.549331998877319e-07,-1.088859569922836e-05,-8.521509677656977e-06,-9.59629468204616e-06,3.549331998877319e-07,-1.088859569922836e-05,-8.521509677656977e-06,0.8722372881355934,34.45134975700209,-78.0,46.81,0.12530152840834327,0.000510774348510936,0.12414970401183721,0.12626593909065684,0.00030948705684113174,0.0003380948455768485,9.165795825475925e-07,0.001007192420530336,0.0010037501165516395,0.0029814275674436247,4.935699895233098e-07,0.01157742744002306,-0.5082104345125468,0.0005240926140683294,-0.509230065968211,-0.5075168512699831,0.12012652072953822,1.3512100398863358,-2.22930908203125,2.581787109375,33.00631578947368,0.012230473724865992,33.0,33.03,0.13559322033898305,0.0007368421052631857,0,1,0
0,0.01629329468535249,0.003880605939488997,0.008256642293870096,0.025457980406099465,-0.01629328697183195,0.003880604102344688,-0.02545796835386211,-0.00825663838503636,-1.1210648219170052e-05,2.670062065712393e-06,-1.7516436559628233e-05,-5.681006451771319e-06,-1.1210648219170052e-05,2.670062065712393e-06,-1.7516436559628233e-05,-5.681006451771319e-06,-2.3118027210884335,40.270151635381154,-105.36,81.83,0.12378229607991995,0.0016836932448647478,0.12102468653150893,0.12651678597765453,0.0009121589559003625,0.00038762696123013923,0.0003326065946709535,0.0014535751789398533,9.286589742880048e-08,1.451173973729146e-07,2.582359725968736e-08,6.548203585893253e-07,-0.5112352798774503,0.001258993325985257,-0.5135089929664292,-0.5093913886859613,0.9232206320940117,2.463392344762115,-2.72369384765625,5.86395263671875,33.00999999999999,0.014142135623731485,33.0,33.03,0.13605442176870747,0.0022291021671827474,0,1,0
0,0.01326492305035592,0.0011286837695943634,0.011008856391826794,0.016513284587740193,-0.013264916770517589,0.0011286832352564284,-0.01651327677007272,-0.01100885118004848,-9.12696841514734e-06,7.765941103971038e-07,-1.1362012903542639e-05,-7.574675269028425e-06,-9.12696841514734e-06,7.765941103971038e-07,-1.1362012903542639e-05,-7.574675269028425e-06,1.5003050847457657,28.873195819930917,-64.91,63.28,0.11787672597446343,0.0012478054287118772,0.11548878761375993,0.12029063017954902,0.00011993957622677907,7.831209690215678e-05,3.125718346241632e-05,0.0002940925079799094,1.2893404394327419e-07,2.017099278283273e-07,2.6685520466106227e-08,9.270967900728774e-07,-0.5170292423907128,0.0019682190277554718,-0.520241057103753,-0.5138365837144279,-0.3333775636280145,2.4094087863922202,-3.29742431640625,4.77142333984375,33.023684210526305,0.012230473724865987,33.0,33.03,0.13559322033898305,0.00031578947368422246,0,1,0
0,0.011180869772949105,0.001954105730952724,0.00894469581835927,0.016513284587740193,-0.011180864479736718,0.001954104805846107,-0.01651327677007272,-0.00894469158378939,-7.693029570107002e-06,1.3445280623610825e-06,-1.1362012903542639e-05,-6.154423656085595e-06,-7.693029570107002e-06,1.3445280623610825e-06,-1.1362012903542639e-05,-6.154423656085595e-06,-0.4841694915254234,25.010214616386502,-61.79,44.97,0.11571275938992426,0.002035919818299269,0.11057008676966695,0.11918727164601374,0.001195296595349198,0.00046692276389629836,0.0002566531447641259,0.0018289369005174342,0.0010990253349170594,0.004527497979902996,5.087458091260211e-08,0.019766375516590527,-0.5228546346781856,0.0012247484048458744,-0.5244978078949811,-0.5205757844144646,-0.09024558213790529,3.9021293745922074,-8.37554931640625,4.38690185546875,33.01,0.014142135623731487,33.0,33.03,0.16271186440677965,0.0,0,1,0
0,0.01020846759803325,0.0010828366371709156,0.008256642293870096,0.012384963440805145,-0.010208462765172519,0.0010828361245377861,-0.01238495757755454,-0.00825663838503636,-7.023965459928141e-06,7.450488592135582e-07,-8.521509677656977e-06,-5.681006451771319e-06,-7.023965459928141e-06,7.450488592135582e-07,-8.521509677656977e-06,-5.681006451771319e-06,-0.5651186440677969,22.23834998534444,-50.12,32.39,0.11405936804088034,0.0009400958961179756,0.11219273924282432,0.11553452501530825,0.00021185612701866115,0.00013785075179787736,5.524788591362232e-05,0.000517360312005846,7.626838862454259e-08,4.2368487682651234e-08,4.7206843449250704e-08,1.9498504571363595e-07,-0.5242955848148485,0.0004460378439029609,-0.5247165722425787,-0.5233030024990208,-0.3555127468061802,1.3907480535872945,-3.16314697265625,2.79998779296875,33.03842105263158,0.009874559494363151,33.03,33.05,0.16271186440677965,-0.0007017543859647727,0,1,0
0,0.014851658729279916,0.004186299911041877,0.004128321146935048,0.028210194504056162,-0.01485165169825417,0.004186297929176888,-0.02821018114887423,-0.00412831919251818,-1.0218726457749671e-05,2.880395681103348e-06,-1.941010537688534e-05,-2.8405032258856597e-06,-1.0218726457749671e-05,2.880395681103348e-06,-1.941010537688534e-05,-2.8405032258856597e-06,2.3389455782312942,46.45504461279343,-87.81,150.86,0.11561816340974342,0.0015141285826408943,0.11279011888046181,0.11801660430379494,2.067590082010704e-05,1.2817861141553822e-05,5.910432489677097e-06,4.875806884973115e-05,9.014928656606978e-08,3.3548959307108565e-08,4.665907763765954e-08,1.4459009678994455e-07,-0.5213409174051917,0.0011202391417080829,-0.5231215515900762,-0.5194974008300348,0.8035763913289489,2.588043199905965,-4.46929931640625,4.45404052734375,33.01666666666666,0.014907119849999166,33.0,33.03,0.10884353741496598,0.0004953560371517216,0,1,0
0,0.015713654816036562,0.0003670069011646464,0.013761070489783492,0.016513284587740193,-0.01571364737692729,0.0003670067274173875,-0.01651327677007272,-0.013761063975060599,-1.081182534177199e-05,2.5252015276341423e-07,-1.1362012903542639e-05,-9.468344086285531e-06,-1.081182534177199e-05,2.5252015276341423e-07,-1.1362012903542639e-05,-9.468344086285531e-06,0.08186440677966175,35.68726062757211,-76.14,54.76,0.1178241087794363,0.0012607235741913011,0.11468206331551925,0.11972116057165255,2.2633663106183266e-06,1.3451563319450854e-06,7.410891942852718e-07,5.223990353540486e-06,1.02980015638729e-07,4.526191387413547e-08,4.541088148408653e-08,1.8018347783260933e-07,-0.5178504239555606,0.0008010779976533577,-0.5192909819131879,-0.5166696838672339,-0.5726216855050613,1.3659389136396856,-2.99835205078125,1.36871337890625,33.02777777777777,0.01685083432011381,33.0,33.05,0.16271186440677965,0.0015686274509802561,0,1,0
