,net_acc_mean,net_acc_std,net_acc_min,net_acc_max,ACC_x_mean,ACC_x_std,ACC_x_min,ACC_x_max,ACC_y_mean,ACC_y_std,ACC_y_min,ACC_y_max,ACC_z_mean,ACC_z_std,ACC_z_min,ACC_z_max,BVP_mean,BVP_std,BVP_min,BVP_max,EDA_mean,EDA_std,EDA_min,EDA_max,EDA_phasic_mean,EDA_phasic_std,EDA_phasic_min,EDA_phasic_max,EDA_smna_mean,EDA_smna_std,EDA_smna_min,EDA_smna_max,EDA_tonic_mean,EDA_tonic_std,EDA_tonic_min,EDA_tonic_max,Resp_mean,Resp_std,Resp_min,Resp_max,TEMP_mean,TEMP_std,TEMP_min,TEMP_max,BVP_peak_freq,TEMP_slope,0,1,2
0,0.042984749239370894,0.00037894424889925514,0.04197126499383966,0.044035425567307176,0.042984728889665716,0.0003789440695006551,0.04197124512393483,0.04403540472019392,2.957578021006625e-05,2.607336791684159e-07,2.8878449463170872e-05,3.02987010761137e-05,2.957578021006625e-05,2.607336791684159e-07,2.8878449463170872e-05,3.02987010761137e-05,23.73261016949153,209.2870444401066,-570.78,494.49,1.352951630442017,0.0045436955531149405,1.3461644145587002,1.3607464357427492,0.19209159421476873,0.10865768697686155,0.05598833629933304,0.4016202684083852,0.3357953845667966,0.24320212168722355,0.00011414089664385507,0.9092927864578346,-0.4561289061424028,0.11298251625149505,-0.6726875318563217,-0.3172008318463936,1.4707706746128897,0.6057913727380126,-0.80108642578125,2.89154052734375,34.34666666666668,0.012472191289243989,34.34,34.37,0.05423728813559322,0.0004953560371516042,0,1,0
0,0.01389212830397189,0.011640837324351441,0.002064160573467524,0.04953985376322058,0.01389212172720402,0.011640831813382702,0.00206415959625909,0.04953983031021816,9.558518791869189e-06,8.009511565344001e-06,1.4202516129428298e-06,3.408603871062791e-05,9.558518791869189e-06,8.009511565344001e-06,1.4202516129428298e-06,3.408603871062791e-05,-24.224033898305105,207.47056402278133,-477.06,603.23,1.303718694481298,0.02607408972627736,1.2586550895365518,1.3453954168685136,0.6814802754910947,0.15139663279954607,0.4332421897369061,0.9442497650064375,0.7604056891189955,0.6154122859461889,0.00023124129319640474,2.1373256353098995,-0.9981943945398811,0.1717349324631697,-1.2586743121801405,-0.7054171800072817,0.2716982630878761,4.125234314974561,-5.90667724609375,7.66754150390625,34.33578947368422,0.004937279747185083,34.33,34.34,0.10847457627118644,-0.0007719298245617984,0,1,0
0,0.01565204752307347,0.011753585494340982,0.0013761070489783493,0.0488518002387314,0.015652040113130147,0.011753579929995343,0.00137610639750606,0.04885177711146513,1.076943626684994e-05,8.087088267632707e-06,9.468344086285532e-07,3.3612621506313634e-05,1.076943626684994e-05,8.087088267632707e-06,9.468344086285532e-07,3.3612621506313634e-05,-15.239285714285721,139.43387717937168,-397.76,319.58,1.168763009408398,0.158558726760286,0.8111303962380412,1.3023545100019673,0.880792507709125,0.12734531297264057,0.6157706314878837,1.0083732813847868,0.6557490907592302,1.2432470992552267,3.376189283699205e-08,4.517278169152306,-1.3392065839330018,0.025606310896311095,-1.3672075443741187,-1.2793716340378758,-0.5812050982681161,3.2688529235802193,-4.779052734375,5.67169189453125,34.276666666666664,0.013333333333332257,34.25,34.29,0.24489795918367346,-0.0023116615067077214,0,1,0
0,0.013686686324973833,0.012712050285128696,0.0,0.0460995861407747,0.00647141927475823,0.01752261416597093,-0.018577436366331808,0.046099564316453005,4.452680732469414e-06,1.2056490727411463e-05,-1.2782264516485466e-05,3.1718952689056526e-05,4.452680732469414e-06,1.2056490727411463e-05,-1.2782264516485466e-05,3.1718952689056526e-05,13.755762711864405,204.1290669691762,-654.21,453.14,1.290616040412596,0.049594981015239,1.188042424841069,1.348284192209412,0.8108050405386408,0.06575901706539425,0.699480491409427,0.9431292979262582,0.4950024727386319,0.6592710179578872,2.448532757881594e-06,2.730230438224119,-1.1417709543174914,0.09360271796756366,-1.2932667154242712,-0.9956099476831356,0.7294368507252733,4.220312377523915,-7.26165771484375,7.80487060546875,34.20315789473685,0.026764593968612662,34.16,34.25,0.13559322033898305,-0.0029649122807016504,0,1,0
0,0.006796283792913481,0.005185008444511855,0.0,0.024081873357121114,0.0021343691063359306,0.008277571219427049,-0.01926548956508484,0.02408186195635605,1.468559490934082e-06,5.695409355432804e-06,-1.3255681720799745e-05,1.656960215099968e-05,1.468559490934082e-06,5.695409355432804e-06,-1.3255681720799745e-05,1.656960215099968e-05,-18.037796610169494,234.98276183488835,-687.52,487.04,1.341070464501356,0.012785152294811699,1.3158009432672575,1.360424795004407,0.6991650111484238,0.03365172045729649,0.6624611456492674,0.7702780821385748,0.6126145440928394,0.25960211091073615,0.237100499971163,1.1373070448144222,-0.9759451899055954,0.031700952090347984,-1.053767844010597,-0.9450112071271068,-1.385793943343013,4.319060445406284,-7.891845703125,5.47943115234375,34.12277777777778,0.01850091756149566,34.11,34.16,0.10847457627118644,-0.002321981424148475,0,1,0
0,0.011097187587538243,0.013760903218632742,0.0,0.04472347909179635,0.010743857718366574,0.014038491912528064,-0.00894469158378939,0.04472345791894695,7.392345670069546e-06,9.659229266083476e-06,-6.154423656085595e-06,3.0772118280427976e-05,7.392345670069546e-06,9.659229266083476e-06,-6.154423656085595e-06,3.0772118280427976e-05,39.10599999999998,130.2390000310381,-231.22,355.87,1.291885226730347,0.06857116088775388,1.0339051006799778,1.3276813634129316,0.950541461762654,0.10240421930636459,0.7821242919794738,1.1202759352096114,0.6723036540885823,0.9258350832193862,5.3733316462967196e-08,3.2052074340644765,-1.284593357120564,0.13222732645451546,-1.4981646145405934,-1.0732523750056457,0.6990404342007697,1.3293683561803324,-2.87017822265625,2.7801513671875,34.05210526315789,0.037074455295486496,34.0,34.11,0.10847457627118644,-0.006157894736841964,0,1,0
0,0.023726145004323986,0.014813596196748153,0.0006880535244891746,0.05022790728770975,0.017725560977399475,0.021637382843274405,-0.02614602155261514,0.050227883508971186,1.2196128930191606e-05,1.488767047795888e-05,-1.7989853763942512e-05,3.455945591494219e-05,1.2196128930191606e-05,1.488767047795888e-05,-1.7989853763942512e-05,3.455945591494219e-05,-21.313571428571407,258.05122675368483,-596.91,586.46,1.0249857947827599,0.14381696851680328,0.7546623161795931,1.2437871016601283,0.9985857561838812,0.13585832101639886,0.7386143583972098,1.1781871667101098,0.9559768764406249,1.8498811978500727,6.529745277816801e-08,6.713864815820399,-1.6061244740711595,0.03655229560778551,-1.6418408224720715,-1.5184800324140166,0.3203739895122519,3.423822314186138,-4.254150390625,6.45751953125,34.00222222222223,0.015475986974648777,33.99,34.03,0.10884353741496598,-0.0017337461300309081,0,1,0
0,0.03132749822725205,0.01621916027925032,0.0,0.059860656630558194,0.031205786912152648,0.0164520816381021,-0.00412831919251818,0.05986062829151361,2.1471241504512137e-05,1.1319907397242137e-05,-2.8405032258856597e-06,4.1187296775342064e-05,2.1471241504512137e-05,1.1319907397242137e-05,-2.8405032258856597e-06,4.1187296775342064e-05,-0.7156949152542358,178.57405696552692,-769.96,375.9,1.0922454761733935,0.02061505943910319,1.074602487449238,1.1651722084680314,0.8574683573378878,0.12509924379849405,0.6781738791174752,1.0470827072537743,0.47388279040669734,0.5476166351028374,1.999152953402472e-06,1.9641987502289737,-1.400841190990765,0.13121549291694445,-1.5898682775253068,-1.1679761209666781,0.4362252496097386,2.3128700792896333,-3.19976806640625,4.10919189453125,33.92777777777778,0.02572408200620275,33.87,33.95,0.10847457627118644,-0.004458204334365787,0,1,0
0,0.01925155165479508,0.00720059960972928,0.0013761070489783493,0.05504428195913397,0.019214350475988316,0.007299261033363622,-0.00275221279501212,0.055044255900242395,1.3220495306965578e-05,5.022279902539187e-06,-1.8936688172571063e-06,3.7873376345142124e-05,1.3220495306965578e-05,5.022279902539187e-06,-1.8936688172571063e-06,3.7873376345142124e-05,-1.6460000000000001,92.25545623072381,-254.43,254.52,1.2022523315109455,0.020166204472277495,1.1629294141481976,1.2272422055771641,0.4528289190332813,0.132643224952317,0.2478998531406723,0.6996735083030612,0.13845030435279848,0.2457507010449563,6.925675062774417e-06,0.9962203311058246,-0.8783482327518386,0.14839325183784025,-1.1371165865760904,-0.6578955740377935,-0.43462985206774385,1.9523033574865059,-3.47747802734375,3.228759765625,33.883684210526305,0.015963948303266452,33.87,33.91,0.10847457627118644,0.0013684210526314687,0,1,0
0,0.03913479944390466,0.007162566422132595,0.008256642293870096,0.05504428195913397,0.03913478091683051,0.007162563031252828,0.00825663838503636,0.055044255900242395,2.6926811192324273e-05,4.928224404923707e-06,5.681006451771319e-06,3.7873376345142124e-05,2.6926811192324273e-05,4.928224404923707e-06,5.681006451771319e-06,3.7873376345142124e-05,9.236338983050851,310.2464472643584,-1092.57,651.42,1.1929964453305766,0.0251094214564696,1.1435680891863367,1.2246379561726881,0.11629094438952015,0.062296501870031225,0.039050273276259574,0.23289242832342377,0.014818944547606053,0.051936449317283834,7.085099262837957e-08,0.2253792964519128,-0.5497104142556634,0.04410504076325227,-0.6406976269475441,-0.49768040504415906,0.06362768274414365,2.60638716063969,-3.60870361328125,4.82025146484375,33.89777777777776,0.009749960430433751,33.89,33.91,0.13559322033898305,0.000928792569659258,0,1,0
0,0.028687619398599675,0.003341600576676505,0.02476992688161029,0.042659318518328826,0.0286876058173967,0.003341598994706425,0.02476991515510908,0.04265929832268786,1.9738598947225875e-05,2.2991978772576617e-06,1.7043019355313955e-05,2.935186666748515e-05,1.9738598947225875e-05,2.2991978772576617e-06,1.7043019355313955e-05,2.935186666748515e-05,-38.07346938775509,298.4892723220798,-997.59,743.27,1.2238121652335308,0.022419014955045145,1.1758019720708317,1.2584431108825056,0.09934789271666178,0.02666195990331286,0.045124267704761224,0.12370271982079524,0.09961134820358201,0.15487094854760966,5.807826952697326e-07,0.4462077970343521,-0.5015207287698975,0.007481196731807759,-0.5161233034494066,-0.49366837400280716,0.011242770409399225,2.701282476755212,-2.96478271484375,5.096435546875,33.86368421052632,0.026399865692597262,33.81,33.91,0.08163265306122448,-0.0036491228070174657,0,1,0
0,0.026736458238765203,0.00045253285730889554,0.025457980406099465,0.028210194504056162,0.02673644558127485,0.0004525326430722061,0.02545796835386211,0.02821018114887423,1.8396096905482453e-05,3.113665326059941e-07,1.7516436559628233e-05,1.941010537688534e-05,1.8396096905482453e-05,3.113665326059941e-07,1.7516436559628233e-05,1.941010537688534e-05,30.067796610169523,132.94148916694422,-243.73,356.69,1.2066379339946198,0.010617579437321504,1.1884800167241154,1.2223734603693357,0.11077353747696239,0.0030539332740008615,0.1055191277394852,0.11636229963760747,0.09264772011387905,0.09309745101356927,2.7298149434695773e-05,0.25290361577795384,-0.531509798792482,0.009764776723366297,-0.5513359790866807,-0.5177587459697627,0.14366602032146875,0.968634002601034,-1.88446044921875,1.91802978515625,33.809999999999995,0.013333333333333051,33.79,33.83,0.10847457627118644,-0.001320949432404454,0,1,0
0,0.03241340583052745,0.005382629900243918,0.019953552210186066,0.04816374671424223,0.03241339048547441,0.005382627352016136,0.01995354276383787,0.0481637239127121,2.23021370059617e-05,3.703533967250247e-06,1.372909892511402e-05,3.313920430199936e-05,2.23021370059617e-05,3.703533967250247e-06,1.372909892511402e-05,3.313920430199936e-05,-1.396610169491526,97.1422789731756,-256.39,308.27,1.143114837342123,0.04648000885793723,1.0395134294288262,1.187598610957219,0.13170503136152242,0.03639169865687389,0.07946953022988437,0.20499342092645054,0.1812325364820525,0.4412697942044611,8.254366345994413e-08,1.6708857872444087,-0.6190959025033744,0.04837823685044702,-0.713689803602055,-0.5553836045736538,-0.14307943516327956,1.1713049170649712,-2.32391357421875,2.14996337890625,33.77888888888889,0.016629588385661396,33.75,33.79,0.18983050847457628,0.0003302373581012455,0,1,0
0,0.0262669081984043,0.015198697601766176,0.0,0.05779649605709067,0.025764802888441154,0.016035115691068604,-0.01100885118004848,0.05779646869525452,1.772755504263324e-05,1.1033012643614651e-05,-7.574675269028425e-06,3.976704516239923e-05,1.772755504263324e-05,1.1033012643614651e-05,-7.574675269028425e-06,3.976704516239923e-05,23.7006440677966,206.84799405686263,-372.16,623.53,1.1175652884485299,0.02678705161327418,1.0485553067355144,1.1416457118149521,0.41224745021920783,0.13968721422173758,0.22722315732430654,0.6305553551399607,0.4712377321984393,0.7392370843030428,1.0624606483489174e-06,3.0061676796250945,-0.9284600687954212,0.1315514156518713,-1.1550728292967825,-0.7299992421119974,0.9173452410449461,3.4051553381979995,-2.9571533203125,9.2254638671875,33.768947368421045,0.013724636642531747,33.75,33.79,0.10847457627118644,-0.0008771929824560031,0,1,0
0,0.03191257775487888,0.007077728689306878,0.013761070489783492,0.0460995861407747,0.03191256264692624,0.007077725338590728,0.013761063975060599,0.046099564316453005,2.1957540809624087e-05,4.869851559112721e-06,9.468344086285531e-06,3.1718952689056526e-05,2.1957540809624087e-05,4.869851559112721e-06,9.468344086285531e-06,3.1718952689056526e-05,-21.949829931972815,227.33428343177917,-643.12,570.47,0.9975316182790542,0.1757721797654109,0.6602416954554152,1.1645004275161388,0.7288392436166855,0.09639750902056789,0.5483211206831071,0.8619985073454646,0.5946396003828416,1.0427882132772368,3.78171343129452e-08,3.985800657457755,-1.3716988830112447,0.10495881828863866,-1.5173479982471147,-1.1813338887783738,-0.28779193130379577,4.789351328251167,-8.12225341796875,7.59429931640625,33.74222222222223,0.009749960430437217,33.73,33.75,0.13605442176870747,-0.0015892672858619616,0,1,0
0,0.03353675852357091,0.003864890636849752,0.016513284587740193,0.04059515794486131,0.03353674264670386,0.003864888807145335,0.01651327677007272,0.04059513872642877,2.3075063053821697e-05,2.659249106581129e-06,1.1362012903542639e-05,2.7931615054542318e-05,2.3075063053821697e-05,2.659249106581129e-06,1.1362012903542639e-05,2.7931615054542318e-05,0.34793220338982805,105.99367367815883,-381.96,306.41,1.001062556188763,0.053358518007134884,0.8340470954300027,1.0589114043567893,0.8438378391577048,0.06575771294265037,0.7155098553023707,0.9598062233751175,0.6235247740783784,0.671031186980315,1.604889042994273e-06,1.9671639646700676,-1.4843918674359036,0.06111787647124939,-1.5412399300881272,-1.3484473282494127,0.2490064938074306,3.6856087836945424,-5.975341796875,6.55059814453125,33.700526315789475,0.027429082570094795,33.68,33.75,0.13559322033898305,0.00322807017543854,0,1,0
0,0.039144666731073426,0.0010058206576966273,0.03577878327343708,0.041283211469350475,0.03914464819932779,0.0010058201815241615,0.03577876633515756,0.041283191925181796,2.6933600407609523e-05,6.92057793268053e-07,2.461769462434238e-05,2.8405032258856593e-05,2.6933600407609523e-05,6.92057793268053e-07,2.461769462434238e-05,2.8405032258856593e-05,-4.882067796610163,44.60611960899172,-90.13,97.12,1.0209741133766406,0.00496345577808845,1.013579561202106,1.0286267134406304,0.4712188107140126,0.14908727344228737,0.2315934374563615,0.7124582603709891,0.1348960099016342,0.14128757093785058,5.567023038111074e-07,0.4408806672694343,-1.0907538496545797,0.1438390696247891,-1.3238095494376578,-0.8599085019507934,-0.7457021819187771,2.509639455160123,-5.74188232421875,3.399658203125,33.75444444444443,0.01571348402637018,33.73,33.77,0.13559322033898305,0.0024767801857589014,0,1,0
0,0.03934074743762947,0.0003077140103789263,0.03853099737139378,0.04059515794486131,0.039340728813055954,0.00030771386470192246,0.03853097913016968,0.04059513872642877,2.7068514301098564e-05,2.1172350890881464e-07,2.651136344159949e-05,2.7931615054542318e-05,2.7068514301098564e-05,2.1172350890881464e-07,2.651136344159949e-05,2.7931615054542318e-05,4.201593220338983,36.411753222220526,-97.86,81.93,1.0180665880502884,0.003511935838069293,1.0114287141864848,1.0252822425161177,0.08986404644122963,0.052640982416521924,0.03937444556693677,0.20754308141498537,0.021066523185200473,0.051814201008958304,1.2169687790830608e-07,0.18880048098917412,-0.711295842667284,0.05479692956592377,-0.8361483629352278,-0.6621990424939028,0.2481356448038636,2.0068237004356426,-2.81219482421875,4.0863037109375,33.823157894736845,0.011721609184904589,33.81,33.84,0.16271186440677965,0.0019649122807016625,0,1,0
0,0.03743572849567632,0.009177236913088726,0.0006880535244891746,0.07155756654687416,0.03742634950496073,0.00921533512277837,-0.00068805319875303,0.07155753267031512,2.5751319494537134e-05,6.340640808808801e-06,-4.734172043142766e-07,4.923538924868476e-05,2.5751319494537134e-05,6.340640808808801e-06,-4.734172043142766e-07,4.923538924868476e-05,-5.621496598639452,155.26583198538543,-548.16,343.91,1.053692611153691,0.038440434495356814,1.0125137554273524,1.1264071389869377,0.1987324893168857,0.10657483518302853,0.052489447795818184,0.38802870239638826,0.3072679317527121,0.4150574863506541,8.503572086482336e-07,1.3955465678678127,-0.7831691962213032,0.07081070189159928,-0.9066512408424139,-0.6812343574634006,0.5721501617810271,2.60730214784298,-4.66461181640625,4.62493896484375,33.85722222222223,0.023047187236323458,33.83,33.89,0.08163265306122448,0.0016821465428275575,0,1,0
0,0.014927972075234736,0.017776684102441303,0.0,0.0626128707285149,0.01089262597755641,0.02049890331369492,-0.01307301077630757,0.06261284108652573,7.494706146678043e-06,1.4104335995916876e-05,-8.994926881971256e-06,4.308096559259917e-05,7.494706146678043e-06,1.4104335995916876e-05,-8.994926881971256e-06,4.308096559259917e-05,9.17589830508473,204.40538933935352,-560.27,604.86,1.0924515905522427,0.07534507324679632,0.9080313335853937,1.1590769525882176,0.47204073525508644,0.06778410472957011,0.3549603901663729,0.5748327209810846,0.4092181461395242,0.8071462806643509,7.216180364366664e-08,3.1916937567024153,-1.013978170459052,0.04534400234622711,-1.0611307612338223,-0.9217565884839105,-0.45972179634172355,2.562266021283775,-4.1412353515625,3.8665771484375,33.846666666666664,0.021343747458107284,33.81,33.87,0.16271186440677965,-0.0037770897832813126,0,1,0
0,0.03349463279758183,0.013365725357163658,0.0,0.058484549581579844,0.033223140168360615,0.01402693004663433,-0.00550442559002424,0.058484521894007546,2.2859287865460804e-05,9.651274087271737e-06,-3.7873376345142126e-06,4.024046236671351e-05,2.2859287865460804e-05,9.651274087271737e-06,-3.7873376345142126e-06,4.024046236671351e-05,4.095423728813562,160.70910951706992,-518.74,339.49,1.0466970512736051,0.06249032446945896,0.9028421936042994,1.117932700227046,0.3976386762489076,0.09500729120737787,0.272919831372048,0.5431440350847824,0.22508562102954285,0.46896992184365194,7.660173029222506e-08,1.7030446409696163,-0.9888057770540156,0.05394011841429102,-1.058287048070595,-0.8871945970613038,-0.5905104038437307,3.4780461097326474,-5.950927734375,5.34210205078125,33.809999999999995,0.012977713690460729,33.79,33.83,0.05423728813559322,-0.0005614035087716934,0,1,0
0,0.04271080551675985,0.0003317643406060714,0.041283211469350475,0.044035425567307176,0.04271078529674424,0.00033176418354323613,0.041283191925181796,0.04403540472019392,2.938729244467876e-05,2.2827140771861138e-07,2.8405032258856593e-05,3.02987010761137e-05,2.938729244467876e-05,2.2827140771861138e-07,2.8405032258856593e-05,3.02987010761137e-05,-15.572040816326517,211.46560469888468,-822.42,456.26,1.1017747928584767,0.006640772511075554,1.0842918514370326,1.107671491412163,0.22461733019716976,0.06319705459838681,0.12670810974441102,0.32470371700923456,0.07607443462008923,0.11569388722411529,5.537489567331022e-06,0.39490202177059786,-0.7574060583738266,0.06806696662131984,-0.873244598360199,-0.6537402309576705,0.7299882306650318,2.2144030693761905,-2.26287841796875,5.07965087890625,33.79222222222222,0.006285393610548073,33.79,33.81,0.08163265306122448,-0.0006604747162023736,0,1,0
0,0.042673265549230496,0.00012569534574758233,0.04197126499383966,0.043347372042818,0.04267324534698693,0.0001256952862412853,0.04197124512393483,0.04334735152144089,2.9361462962167208e-05,8.648504376649387e-08,2.8878449463170872e-05,2.9825283871799426e-05,2.9361462962167208e-05,8.648504376649387e-08,2.8878449463170872e-05,2.9825283871799426e-05,11.046881355932209,69.39973913229066,-154.77,222.77,1.102106643950548,0.003037421038350907,1.0947976292608883,1.106020679309298,0.05669077604259177,0.029964320525265056,0.01752614376880629,0.11617137038772501,0.005518709035061242,0.01698804747726046,1.7421340453571688e-07,0.06938622919652304,-0.5896832353304139,0.027164548853476366,-0.6444560233296361,-0.5558313911430497,0.628323235523612,1.3151815006082168,-1.312255859375,3.045654296875,33.754210526315795,0.008153649149911629,33.75,33.77,0.10847457627118644,-0.001052631578947533,0,1,0
0,0.04267804106321274,0.00011194453674899956,0.042659318518328826,0.043347372042818,0.04267802085870838,0.00011194448375256727,0.04265929832268786,0.04334735152144089,2.936474876828283e-05,7.702376012871041e-08,2.935186666748515e-05,2.9825283871799426e-05,2.936474876828283e-05,7.702376012871041e-08,2.935186666748515e-05,2.9825283871799426e-05,-0.1650847457627112,38.5037096153781,-138.59,59.9,1.0877221009354647,0.004787268968601648,1.081875302265784,1.0961385129476557,0.006690295378935439,0.003959697604250117,0.0023886453968997665,0.015486712547322284,0.0023296633955811937,0.009529374913024313,1.6241040029507658e-07,0.041619768362269195,-0.5527252037874509,0.0021001050015075637,-0.5574280335698161,-0.5504283508996423,-0.247485912108769,1.6847740777982874,-2.34832763671875,3.11737060546875,33.764444444444436,0.008958064164777565,33.75,33.77,0.13559322033898305,0.0013415892672860716,0,1,0
0,0.0426918615904329,0.00020130805113886585,0.04197126499383966,0.043347372042818,0.04269184137938567,0.00020130795583623846,0.04197124512393483,0.04334735152144089,2.937425802174328e-05,1.3851058294755766e-07,2.8878449463170872e-05,2.9825283871799426e-05,2.937425802174328e-05,1.3851058294755766e-07,2.8878449463170872e-05,2.9825283871799426e-05,-9.84081355932203,171.15928475738662,-727.28,394.18,1.072393053802741,0.006939929691719366,1.0593034081036288,1.0828577845236316,0.0030772555065100957,0.0014126629037860487,0.0010255377270477913,0.0050979708908687905,1.5669126579669214e-06,1.4291825178709508e-06,5.080067120369347e-07,6.392902986651627e-06,-0.5675316442443263,0.00548721524023759,-0.5764459299431831,-0.5584468727340473,-0.1385800004301237,1.6517174296308648,-2.58026123046875,3.61175537109375,33.76578947368421,0.008153649149911627,33.75,33.77,0.13559322033898305,7.01754385965022e-05,0,1,0
0,0.04268740233565477,0.0001580364679248504,0.04197126499383966,0.043347372042818,0.04268738212671862,0.00015803639310772038,0.04197124512393483,0.04334735152144089,2.9371189818681664e-05,1.087374457971583e-07,2.8878449463170872e-05,2.9825283871799426e-05,2.9371189818681664e-05,1.087374457971583e-07,2.8878449463170872e-05,2.9825283871799426e-05,-1.782823129251694,162.75058400844878,-591.0,260.98,1.0541028523412055,0.00425229746377779,1.0460042882343743,1.0597246319695885,0.0011812542910312328,0.00035330398870662776,0.0007079374273504125,0.0017171226566317062,0.0008152566629994973,0.003352737144035965,2.850794624999903e-07,0.014638936019790395,-0.585035356957011,0.004519686003687473,-0.5921771804109635,-0.5774012547855119,0.7224454477466365,2.9805797018585007,-3.90777587890625,5.58929443359375,33.781111111111116,0.019116278371204054,33.77,33.83,0.08163265306122448,0.002807017543859326,0,1,0
0,0.04266867979077071,7.970836264601064e-05,0.042659318518328826,0.043347372042818,0.04266865959069813,7.970832491072708e-05,0.04265929832268786,0.04334735152144089,2.9358307717883996e-05,5.4843567922071525e-08,2.935186666748515e-05,2.9825283871799426e-05,2.9358307717883996e-05,5.4843567922071525e-08,2.935186666748515e-05,2.9825283871799426e-05,22.89593220338983,73.02217933135447,-159.45,223.62,1.0392373731715787,0.003921568348870241,1.0330403981663931,1.0460321465751168,0.0003344697218284388,0.00025312244233877476,8.95441606788048e-05,0.0011343816525409183,0.005059600880286109,0.02085779154105197,2.50582814619732e-07,0.09105847830465733,-0.5986150030100488,0.0032822023744593183,-0.6037166285100588,-0.5929370416448546,-0.7966271476497052,2.5625433285726373,-4.38079833984375,3.85894775390625,33.821111111111115,0.009938079899997086,33.81,33.83,0.02711864406779661,-0.00033023735810106946,0,1,0
0,0.042640722477126275,0.00017788160803961276,0.04197126499383966,0.043347372042818,0.04264070229028915,0.00017788152382745983,0.04197124512393483,0.04334735152144089,2.9339071607909108e-05,1.223919514685473e-07,2.8878449463170872e-05,2.9825283871799426e-05,2.9339071607909108e-05,1.223919514685473e-07,2.8878449463170872e-05,2.9825283871799426e-05,-20.843457627118635,76.76886104853243,-243.94,239.04,1.0363662470015595,0.004557227443335528,1.029564998614271,1.0442022422585056,0.00573108961722697,0.0016960523205977866,0.0038467139859763256,0.008399368161462748,0.0010406018885157104,0.0030305080653299835,6.391075417777614e-07,0.010183216428354097,-0.6087774307448767,0.002705918214031839,-0.6131908635895057,-0.6042521855788526,-0.2056954812175287,2.4499518080321656,-3.02276611328125,4.60968017578125,33.86684210526316,0.015577524828365668,33.84,33.89,0.16271186440677965,0.0015789473684210376,0,1,0
0,0.04264059597344462,0.00011194453674899823,0.04197126499383966,0.042659318518328826,0.042640575786667384,0.00011194448375256734,0.04197124512393483,0.04265929832268786,2.93389845666875e-05,7.702376012871092e-08,2.8878449463170872e-05,2.935186666748515e-05,2.93389845666875e-05,7.702376012871092e-08,2.8878449463170872e-05,2.935186666748515e-05,4.3874576271186445,43.18703217140105,-119.2,87.79,1.0237338911561087,0.003911712222525957,1.0168387653812168,1.0293923672495155,0.0017140410362321452,0.0009700784123422256,0.0005194630063971348,0.0036427435248999472,9.151253450674288e-07,9.78987799111534e-07,2.759565816707471e-07,3.1322890064050535e-06,-0.6181850442871016,0.002844809177934461,-0.6230255699767298,-0.6136847650875836,0.18373466299958308,2.1078224469586884,-2.63824462890625,4.17327880859375,33.91111111111111,0.0253615826900307,33.87,33.95,0.13559322033898305,0.004355005159958925,0,1,0
0,0.04264995724588665,7.97083626460098e-05,0.04197126499383966,0.042659318518328826,0.042649937054677636,7.970832491072699e-05,0.04197124512393483,0.04265929832268786,2.934542561708633e-05,5.484356792207194e-08,2.8878449463170872e-05,2.935186666748515e-05,2.934542561708633e-05,5.484356792207194e-08,2.8878449463170872e-05,2.935186666748515e-05,-1.6811564625850355,38.578191171136375,-91.38,63.39,1.010445611141287,0.0034480048904343688,1.0049737307177096,1.0161845801732416,0.00018684858936891588,0.00012187881603515961,4.90460271496922e-05,0.00045868718546558657,5.858678122931584e-07,3.003391260184721e-07,2.827551572395781e-07,1.2522767078109419e-06,-0.6299805147077383,0.004048792948257096,-0.6369683132671773,-0.6236516194937671,0.5314165455426356,1.9368182942178276,-2.68707275390625,3.631591796875,33.97315789473685,0.020275116088692053,33.95,34.0,0.13605442176870747,0.00354385964912265,0,1,0
0,0.04264072247712627,0.0001115762472144595,0.04197126499383966,0.042659318518328826,0.042640702290289156,0.00011157619439238303,0.04197124512393483,0.04265929832268786,2.93390716079091e-05,7.677035745636956e-08,2.8878449463170872e-05,2.935186666748515e-05,2.93390716079091e-05,7.677035745636956e-08,2.8878449463170872e-05,2.935186666748515e-05,1.9681355932203353,61.24780817592167,-149.12,164.22,0.995402533293459,0.00500562817289404,0.9897645609772562,1.0051304938574597,0.0003096262408998535,0.0005366458221196181,1.0334557685568959e-05,0.0016027346334524526,0.0009737429617487094,0.0039991937409874475,2.612508209509125e-07,0.017462812089997306,-0.6461820533253518,0.0053630733969920056,-0.6554789383782075,-0.6378398365795851,0.038441448821216646,1.473813395088708,-2.50396728515625,2.92510986328125,34.04777777777778,0.011331154474649927,34.03,34.07,0.10847457627118644,0.0011558307533539778,0,1,0
0,0.04262187342856057,0.00017550825547382753,0.04197126499383966,0.043347372042818,0.0426218532506469,0.00017550817238525969,0.04197124512393483,0.04334735152144089,2.9326102465889835e-05,1.2075895941697697e-07,2.8878449463170872e-05,2.9825283871799426e-05,2.9326102465889835e-05,1.2075895941697697e-07,2.8878449463170872e-05,2.9825283871799426e-05,-1.6089830508474574,49.99159012985661,-159.1,92.32,0.9808506350139111,0.0040619411605746425,0.9715179921612976,0.9874340390315361,0.00786005090615714,0.004654071987429633,0.0015612401468884968,0.014697541743859212,0.011021578928457272,0.022345274733349327,3.959477859388771e-06,0.07770692673356092,-0.670303992712948,0.009094753539588557,-0.6866255111022705,-0.6567553233412057,-0.15152976485538514,2.552203042815818,-3.65447998046875,4.79278564453125,34.09222222222223,0.017497795275581325,34.07,34.11,0.13559322033898305,0.0031372549019606883,0,1,0
0,0.04115303918093354,0.005179489895999548,0.017201338112229368,0.05022790728770975,0.04115301969839071,0.0051794874439416655,0.01720132996882575,0.050227883508971186,2.831546684182416e-05,3.5637629037052162e-06,1.1835430107856916e-05,3.455945591494219e-05,2.831546684182416e-05,3.5637629037052162e-06,1.1835430107856916e-05,3.455945591494219e-05,2.5967457627118624,100.62234496383053,-478.4,272.01,0.9577525749434352,0.02662404849144651,0.8872099221363858,0.975013983153914,0.030274229148027066,0.008270292739592884,0.014514450620442619,0.042854319319077475,0.024298630042634117,0.054985168631724236,7.22817137255305e-08,0.20605506669547013,-0.7160635147438243,0.018088689309846206,-0.748321035112327,-0.6890028802340138,0.11979805920319285,2.2269580342709743,-3.52935791015625,4.84771728515625,34.14315789473683,0.011721609184902977,34.13,34.16,0.13559322033898305,0.0019649122807013633,0,1,0
0,0.039467124615596705,0.0037385481227024276,0.028898248028545334,0.0460995861407747,0.03946710593119423,0.0037385463528106866,0.02889823434762726,0.046099564316453005,2.7155468481482865e-05,2.572318776737865e-06,1.9883522581199616e-05,3.1718952689056526e-05,2.7155468481482865e-05,2.572318776737865e-06,1.9883522581199616e-05,3.1718952689056526e-05,-3.2928231292516954,174.7072356670177,-500.27,335.57,0.9443025379119718,0.027583312096803786,0.89944001129861,0.9815484153225836,0.08684137761302793,0.050850167299216764,0.019419567521362282,0.16091632782658477,0.1292223445750836,0.17621128875839304,5.452665052807504e-07,0.6343668744400983,-0.7879578141245875,0.021124480523267444,-0.8208806283799244,-0.7525067901147053,0.6313854056611546,3.3502500320408997,-4.48150634765625,5.462646484375,34.20500000000001,0.029107081994288606,34.16,34.23,0.16326530612244897,0.004674922600619219,0,1,0
0,0.028668896853715594,0.014821416223292777,0.0013761070489783493,0.06467703130198241,0.028668883281376262,0.01482140920658433,0.00137610639750606,0.06467700068278481,1.9725716846428193e-05,1.0197918014617956e-05,9.468344086285532e-07,4.4501217205542e-05,1.9725716846428193e-05,1.0197918014617956e-05,9.468344086285532e-07,4.4501217205542e-05,11.54461016949152,224.61196037045355,-545.71,691.01,0.942116507165045,0.040976415308369124,0.855008283716149,0.9859075537949299,0.13633313647426581,0.03565258274399322,0.07535487043888817,0.18388836020932886,0.12476811382247656,0.2670255605055127,7.710076044276093e-08,1.1918317191560792,-0.8395661469841766,0.00658576077888617,-0.8457758639154818,-0.8240625353915275,-0.6459072860831362,3.0190796610896906,-6.01348876953125,4.57916259765625,34.19105263157894,0.014471291668282149,34.18,34.21,0.16271186440677965,-0.0022105263157895572,0,1,0
0,0.016931695514794405,0.0004049712285206493,0.015825231063251018,0.01788939163671854,0.016931687499044164,0.0004049710368004364,0.01582522357131969,0.01788938316757878,1.1649901744004001e-05,2.786416172728716e-07,1.088859569922836e-05,1.230884731217119e-05,1.1649901744004001e-05,2.786416172728716e-07,1.088859569922836e-05,1.230884731217119e-05,-10.860067796610164,31.631587902217973,-110.99,94.45,0.9970664517690329,0.003424363157530118,0.9895545026618877,1.000304839182962,0.16371366135970625,0.018389443560864843,0.12874679337068495,0.18587285271603132,0.08869194006237595,0.04110011311107463,0.0024205807641224375,0.16073817970973003,-0.8088894797456739,0.02137052747339204,-0.8390885461968058,-0.7704792090575541,0.2730267483589629,2.8861919536895897,-5.84259033203125,4.6356201171875,34.25888888888889,0.03899984172174274,34.21,34.33,0.13559322033898305,0.007265221878224937,0,1,0
0,0.017599192191015568,0.00033978968956461223,0.017201338112229368,0.01788939163671854,0.017599183859261184,0.0003397895287024429,0.01720132996882575,0.01788938316757878,1.2109174749807317e-05,2.3379327212650012e-07,1.1835430107856916e-05,1.230884731217119e-05,1.2109174749807317e-05,2.3379327212650012e-07,1.1835430107856916e-05,1.230884731217119e-05,1.7925084745762687,12.788372253496382,-22.97,25.66,0.9960220275828963,0.0020907132290676586,0.9920066234843491,1.0001744846451597,0.07324231636374119,0.028398347963283607,0.030196824102230027,0.12343515903473634,0.01552850265845768,0.029015243173802767,2.450775902218538e-07,0.09431528927215194,-0.7200553466250826,0.02631434499065274,-0.7652523568281524,-0.680159129073955,0.22641932106491353,1.5986481748821901,-2.4505615234375,3.43475341796875,34.36578947368421,0.025611631706519682,34.33,34.39,0.13559322033898305,0.004000000000000139,0,1,0
0,0.01784726591072934,0.00016495507706153396,0.017201338112229368,0.01788939163671854,0.017847257461532706,0.0001649549989690178,0.01720132996882575,0.01788938316757878,1.2279862585376405e-05,1.1349781469093542e-07,1.1835430107856916e-05,1.230884731217119e-05,1.2279862585376405e-05,1.1349781469093542e-07,1.1835430107856916e-05,1.230884731217119e-05,-0.21802721088435412,13.162278928221115,-26.89,18.95,0.9912177826880354,0.0016359703718955428,0.9866727336841921,0.9942384033721123,0.01150010778404911,0.007079535485511795,0.0032750613490483945,0.026825794324636235,2.1865687116176228e-07,1.9270363526630896e-08,1.840453905943562e-07,2.4896647099481584e-07,-0.6615152338708293,0.006960441127224511,-0.676907081950179,-0.6547873592460846,-0.3948921601174783,2.089742191265481,-3.04718017578125,3.83148193359375,34.427777777777784,0.027397395568752793,34.37,34.45,0.13605442176870747,0.0043756449948403955,0,1,0
0,0.018224120378361863,0.0003439010903637759,0.01788939163671854,0.018577445161207715,0.018224111750755976,0.00034390092755519727,0.01788938316757878,0.018577436366331808,1.2539158384540293e-05,2.3662213325848705e-07,1.230884731217119e-05,1.2782264516485466e-05,1.2539158384540293e-05,2.3662213325848705e-07,1.230884731217119e-05,1.2782264516485466e-05,0.17047457627118662,14.987625170431562,-30.95,20.39,0.9811816217293767,0.004426886284526001,0.9750664645508215,0.9890283629496046,0.0015036557333280133,0.0008863257572309083,0.0005027055030704137,0.003785447388691101,0.003851963352985639,0.011939426883517682,2.1880212060232385e-07,0.0493801294758107,-0.6619158010175142,0.0051339790674579085,-0.671266576524784,-0.6551132837339805,0.07374355447540142,2.2595484477706838,-3.2989501953125,3.90777587890625,34.49277777777778,0.011453071182270475,34.45,34.5,0.10847457627118644,0.0015376676986582295,0,1,0
0,0.01821703617218957,0.0014183640738662036,0.013073016965294318,0.022705766308142764,0.01821702754793737,0.0014183634023887252,0.01307301077630757,0.022705755558849988,1.2534284076130367e-05,9.759094760077935e-07,8.994926881971256e-06,1.5622767742371126e-05,1.2534284076130367e-05,9.759094760077935e-07,8.994926881971256e-06,1.5622767742371126e-05,0.36854237288135594,16.362267162251158,-29.45,68.87,0.9739734361224908,0.003004699604229471,0.9679338880926699,0.9783857420926776,0.011646378254628486,0.0023326339059366527,0.005452499594476043,0.01425298728094143,0.00991880116096724,0.015504238542139795,5.6156931524387055e-06,0.05440855663529759,-0.6815835465966232,0.00492795829396911,-0.6886437963344658,-0.6725056274637893,0.7955953441837585,2.4226570744288183,-2.9754638671875,5.206298828125,34.531578947368416,0.024118819447134635,34.5,34.55,0.10847457627118644,0.00368421052631558,0,1,0
0,0.016054582238080765,0.000411842794966682,0.014449124014272667,0.01788939163671854,0.016054574637570675,0.00041184259999335637,0.01444911717381363,0.01788938316757878,1.1046401433999778e-05,2.8336961830819465e-07,9.941761290599808e-06,1.230884731217119e-05,1.1046401433999778e-05,2.8336961830819465e-07,9.941761290599808e-06,1.230884731217119e-05,-1.884897959183673,28.215105711226926,-66.87,61.8,0.9624158389858051,0.004471715908041196,0.9539061743012547,0.9681808838520246,0.009917855010990611,0.0031891596528315926,0.004322817456364813,0.013715265483535513,0.004275707066360089,0.009933925673539415,2.458345624151148e-07,0.03389574891357411,-0.6924793447229276,0.0017203520691614809,-0.694847298077991,-0.6891911113975053,-0.7274599288296759,2.783169309062776,-5.07354736328125,4.33197021484375,34.58555555555556,0.018324913891634997,34.57,34.63,0.13605442176870747,0.0016511867905056993,0,1,0
0,0.016601615783451654,0.0004883674128290317,0.015825231063251018,0.018577445161207715,0.016601607923966685,0.0004883671816276605,0.01582522357131969,0.018577436366331808,1.1422789436528912e-05,3.3602260148491437e-07,1.088859569922836e-05,1.2782264516485466e-05,1.1422789436528912e-05,3.3602260148491437e-07,1.088859569922836e-05,1.2782264516485466e-05,0.7408813559322017,41.47159025821467,-109.4,103.89,0.9493483290152874,0.002892920478657993,0.9446325426433854,0.9549617197841179,0.0015694531727555375,0.0010208769543908255,0.00040931789198684444,0.003830787280181189,2.660518606725544e-07,7.464410308022538e-08,1.8408146140735937e-07,4.4177279613036996e-07,-0.6963474286578384,0.0007639355225307257,-0.6975930065087956,-0.6950292078586817,-0.07341777716321922,2.236020595774477,-3.33709716796875,3.93218994140625,34.599473684210544,0.013562209186025428,34.59,34.63,0.13559322033898305,-0.0010877192982456094,0,1,0
0,0.018151507265095315,0.0005403652109614041,0.017201338112229368,0.019953552210186066,0.01815149867186569,0.000540364955143399,0.01720132996882575,0.01995354276383787,1.248919672333853e-05,3.7179983588045244e-07,1.1835430107856916e-05,1.372909892511402e-05,1.248919672333853e-05,3.7179983588045244e-07,1.1835430107856916e-05,1.372909892511402e-05,-0.5991186440677958,40.1142106258925,-76.96,94.77,0.9458283357839092,0.0018015437552256301,0.9429691169483059,0.9504308201996688,0.00021606555258575974,8.316992044210329e-05,9.38402634519589e-05,0.0003612380529506656,0.00016168834406281006,0.0006167273300878189,5.607620405059278e-07,0.002701651663037243,-0.6993004653797841,0.001056168006128118,-0.7012190808588914,-0.6977400723583396,0.6444748166256206,2.836899652222833,-3.31268310546875,4.96673583984375,34.59444444444446,0.0142291649720722,34.57,34.61,0.13559322033898305,-0.0025180598555209852,0,1,0
0,0.019046995201568585,0.0006299880702690456,0.017201338112229368,0.022017712783653588,0.019046986184399747,0.0006299877720220672,0.01720132996882575,0.02201770236009696,1.3105339770781047e-05,4.334651017150783e-07,1.1835430107856916e-05,1.514935053805685e-05,1.3105339770781047e-05,4.334651017150783e-07,1.1835430107856916e-05,1.514935053805685e-05,0.5166779661016956,56.99513369487164,-259.22,102.06,0.941491247266588,0.002381430519273183,0.9377527247179236,0.9443963182644283,0.00019878565772484953,8.27199537563822e-05,7.117563344369723e-05,0.00030427349430032754,5.467986717833377e-05,0.0002142163281611768,4.0873353805074945e-07,0.0009629277567049371,-0.7049648432045701,0.0023490927207472723,-0.7091985018660237,-0.7015083820960369,0.023140919119785205,2.381144518530584,-3.509521484375,4.68292236328125,34.55526315789473,0.01568385729026461,34.53,34.57,0.13559322033898305,-0.002350877192982549,0,1,0
0,0.02058543810002304,0.0002199401027487118,0.019953552210186066,0.021329659259164413,0.020585428354529388,0.00021993999862535845,0.01995354276383787,0.02132964916134393,1.4163869827035304e-05,1.5133041958791517e-07,1.372909892511402e-05,1.4675933333742575e-05,1.4163869827035304e-05,1.5133041958791517e-07,1.372909892511402e-05,1.4675933333742575e-05,1.3052040816326522,23.144067938473224,-60.54,32.77,0.9313745311894402,0.003367194567738732,0.9247927353067013,0.9369456762283961,2.7066646842018016e-05,1.650108202427015e-05,7.92993783184659e-06,6.302028590639538e-05,3.290679580187035e-07,1.2680704290011698e-07,1.9100557729142143e-07,5.578843282401814e-07,-0.7149713196892388,0.003258395098853109,-0.7203882100124495,-0.7097618928643062,-0.11170957579506242,2.5020761140193186,-3.729248046875,4.84466552734375,34.510000000000005,0.01999999999999918,34.49,34.55,0.13605442176870747,-0.0034674922600617577,0,1,0
0,0.02059948000868609,0.0001649550770615333,0.019953552210186066,0.020641605734675238,0.020599470256544763,0.0001649549989690184,0.01995354276383787,0.020641595962590898,1.4173531402633556e-05,1.1349781469093596e-07,1.372909892511402e-05,1.4202516129428297e-05,1.4173531402633556e-05,1.1349781469093596e-07,1.372909892511402e-05,1.4202516129428297e-05,0.7727796610169481,27.70412889258952,-61.38,41.1,0.9202151593349525,0.001531139158572027,0.9180552839999847,0.9239015395513769,0.00016444268939592272,0.00020159115076027502,3.0497152442477114e-06,0.00047391333780454314,0.0002869036845302685,0.0011684520636244954,3.1161593863965526e-07,0.005104515709429775,-0.726247509837136,0.0030837409592732947,-0.7310903840340836,-0.7210339762232835,0.05000366248812248,2.4963942946690603,-3.24859619140625,4.962158203125,34.44333333333332,0.009428090415822108,34.43,34.45,0.13559322033898305,-0.0014860681114553407,0,1,0
0,0.020636956724374617,5.63662543188821e-05,0.019953552210186066,0.020641605734675238,0.020636946954491177,5.6366227634146676e-05,0.01995354276383787,0.020641595962590898,1.4199317364534293e-05,3.8782963225316166e-08,1.372909892511402e-05,1.4202516129428297e-05,1.4199317364534293e-05,3.8782963225316166e-08,1.372909892511402e-05,1.4202516129428297e-05,-0.25701694915254075,28.36270853020219,-61.99,31.93,0.9133129531826923,0.002408027269504821,0.9087496059016473,0.9158532776768128,0.0009379125186192028,0.0003820463652147566,0.000357046295875491,0.0014806826792910777,0.0007431450048826907,0.002747700896953524,4.684415464174807e-07,0.012274988954458542,-0.7356368656761079,0.0023454918530276757,-0.7393255100281146,-0.73159603630074,-0.09784982458829287,1.9851925845637768,-2.972412109375,3.66058349609375,34.37052631578948,0.031199474390059424,34.34,34.43,0.13559322033898305,-0.005140350877192733,0,1,0
0,0.02064160573467522,1.734723475976807e-17,0.020641605734675238,0.020641605734675238,0.02064159596259086,3.8163916471489756e-17,0.020641595962590898,0.020641595962590898,1.4202516129428307e-05,1.0164395367051604e-20,1.4202516129428297e-05,1.4202516129428297e-05,1.4202516129428307e-05,1.0164395367051604e-20,1.4202516129428297e-05,1.4202516129428297e-05,-1.3405084745762714,28.61113749145624,-60.48,36.33,0.9051867045478045,0.0024569583557246108,0.9005143406662283,0.9081952259625288,0.00021633395552949567,0.0001330371639729564,6.200693412852871e-05,0.0005048200118608024,5.751266117751312e-07,2.0973095243521484e-07,4.0136480816644823e-07,1.1884207191802543e-06,-0.742764085358644,0.0018537165619314294,-0.7457967934741679,-0.7396999561095974,-0.007377054023328421,1.583874661106073,-1.947021484375,3.25469970703125,34.33166666666668,0.012133516482134768,34.31,34.34,0.13559322033898305,-0.0014551083591334021,0,1,0
0,0.02064160573467522,1.734723475976807e-17,0.020641605734675238,0.020641605734675238,0.02064159596259086,3.8163916471489756e-17,0.020641595962590898,0.020641595962590898,1.4202516129428307e-05,1.0164395367051604e-20,1.4202516129428297e-05,1.4202516129428297e-05,1.4202516129428307e-05,1.0164395367051604e-20,1.4202516129428297e-05,1.4202516129428297e-05,-0.44540816326530686,27.569382350730127,-59.61,31.43,0.8996363396332024,0.0022080380282393274,0.8948783875333136,0.9030145719629143,2.278603136530455e-05,1.4434845197003418e-05,6.32079967074816e-06,5.484533626366194e-05,5.126353495963439e-07,2.5105588179806175e-07,2.2154453840627926e-07,1.1198812132438146e-06,-0.7494498443474206,0.0020039521675393693,-0.752728440885498,-0.7461582385677599,0.17216361585513565,1.5560505983457364,-2.18353271484375,3.070068359375,34.30052631578947,0.021878536516658314,34.27,34.33,0.13605442176870747,-0.0035789473684209017,0,1,0
0,0.02070204286858305,0.0001947596874107046,0.020641605734675238,0.021329659259164413,0.020702033067886746,0.0001947595952081839,0.020641595962590898,0.02132964916134393,1.4244100073050506e-05,1.340049624708363e-07,1.4202516129428297e-05,1.4675933333742575e-05,1.4244100073050506e-05,1.340049624708363e-07,1.4202516129428297e-05,1.4675933333742575e-05,1.5870847457627122,33.64943350533716,-71.94,46.16,0.8919526354809553,0.0018694349987082898,0.8896535730252805,0.8963666215072691,4.8206807596832784e-05,0.00011988377301442701,1.8088979281065676e-06,0.0004663223692435119,0.00037106918684585825,0.0015050106100465107,2.1620750717584315e-07,0.0065760788057666825,-0.7559598461996382,0.0017072720215803889,-0.7586644637360299,-0.7530850393988919,0.41297536217348935,1.9256713414343336,-2.72369384765625,3.43780517578125,34.254444444444445,0.01832491389163538,34.23,34.29,0.13559322033898305,-0.0033023735810116337,0,1,0
0,0.02079606672996869,0.00028708750084379417,0.020641605734675238,0.021329659259164413,0.020796056884759922,0.0002870873649317295,0.020641595962590898,0.02132964916134393,1.4308793461009059e-05,1.9753137976285507e-07,1.4202516129428297e-05,1.4675933333742575e-05,1.4308793461009059e-05,1.9753137976285507e-07,1.4202516129428297e-05,1.4675933333742575e-05,-0.494644067796611,34.303006773268024,-72.17,43.2,0.8897786568645141,0.001835650528298209,0.8878125522780225,0.8939710347685411,0.0009880646124121235,0.0003314722036246952,0.0005609837207163341,0.001473517076867313,0.0006849591291864844,0.0028132021017825658,9.206097844518396e-07,0.01228408508544587,-0.761128232617501,0.001261623680774002,-0.7630936590255191,-0.758953487100342,-0.35635687496364027,1.7101389407823124,-2.48870849609375,2.99835205078125,34.21222222222222,0.01930905244109075,34.18,34.23,0.13559322033898305,-0.0018988648090812082,0,1,0
0,0.02072063890978546,0.00021939191397626,0.020641605734675238,0.021329659259164413,0.020720629100285465,0.00021939181011242795,0.020641595962590898,0.02132964916134393,1.4256895132626568e-05,1.5095323672807336e-07,1.4202516129428297e-05,1.4675933333742575e-05,1.4256895132626568e-05,1.5095323672807336e-07,1.4202516129428297e-05,1.4675933333742575e-05,0.2400000000000007,30.422549787833702,-67.97,35.8,0.885008486068986,0.0018185324262638808,0.8823729652906719,0.8879189262779258,0.0002914332167736001,0.0001866459158074303,7.725806962578266e-05,0.0006996040028446455,4.915355457594079e-07,9.170820189114608e-08,3.697345868141841e-07,7.482746583898497e-07,-0.7650026305572716,0.0010041598820003403,-0.7666111177115533,-0.7632999092390658,-0.1528467788885604,1.5541524769350321,-2.46734619140625,2.81982421875,34.16421052631577,0.016956845993250494,34.15,34.21,0.10847457627118644,-0.001350877192982499,0,1,0
0,0.020852234364620872,0.00031711094500135625,0.020641605734675238,0.021329659259164413,0.02085222449282141,0.0003171107948756866,0.020641595962590898,0.02132964916134393,1.434743976340207e-05,2.1818909677333256e-07,1.4202516129428297e-05,1.4675933333742575e-05,1.434743976340207e-05,2.1818909677333256e-07,1.4202516129428297e-05,1.4675933333742575e-05,-0.4253741496598635,35.34712946753536,-75.83,40.58,0.8808714545471878,0.0019256592027212997,0.8786576441180793,0.8837561836239178,2.909305254766385e-05,1.789482617108089e-05,8.522060306233857e-06,6.824673596603433e-05,3.466877956388623e-07,1.1436486933582353e-07,2.3316482564096543e-07,6.346109201749433e-07,-0.768421233347645,0.0011221987266023152,-0.7705804972634749,-0.7667822610797166,0.681120349514869,1.965767116715558,-2.45819091796875,3.73382568359375,34.14833333333333,0.020344259359556197,34.11,34.18,0.13605442176870747,-0.003250773993808063,0,1,0
0,0.020969250270146227,0.0003436364878566215,0.020641605734675238,0.021329659259164413,0.020969240342949474,0.0003436363251733128,0.020641595962590898,0.02132964916134393,1.4427952893387481e-05,2.3644007274323434e-07,1.4202516129428297e-05,1.4675933333742575e-05,1.4427952893387481e-05,2.3644007274323434e-07,1.4202516129428297e-05,1.4675933333742575e-05,-0.15518644067796572,33.70747283060919,-75.11,41.5,0.8748859681500321,0.0031135543910125953,0.8681626389871783,0.8784930155105302,0.0016431011533157346,0.0017802320136994872,5.113689368097779e-06,0.0064710320898483786,0.004445302107917772,0.014960823161715294,7.454884281305895e-07,0.06545042945136685,-0.7771550220210052,0.004624217219193264,-0.786168396670184,-0.7709733058009087,-0.06245170574330219,1.577475813845209,-2.325439453125,2.9632568359375,34.116315789473695,0.009296590385609715,34.11,34.13,0.10847457627118644,-0.00031578947368425986,0,1,0
0,0.020939142393913757,0.0003591492101534508,0.019953552210186066,0.021329659259164413,0.020939132480970558,0.00035914904012615697,0.01995354276383787,0.02132964916134393,1.440723708264528e-05,2.4711364588788305e-07,1.372909892511402e-05,1.4675933333742575e-05,1.440723708264528e-05,2.4711364588788305e-07,1.372909892511402e-05,1.4675933333742575e-05,0.6554237288135597,34.304944967558725,-74.8,42.28,0.8678328481148976,0.0013913140422896382,0.8656361365888573,0.869671731434847,0.02103555010265117,0.010498884773292088,0.006783802855770577,0.04099488292246588,0.03901830458094489,0.04545204243237093,2.8063223933005865e-05,0.13246254749655673,-0.8044550685469904,0.011457753058859564,-0.8247582514384726,-0.7876161367792368,-0.3485688799255352,2.051199744646349,-2.76031494140625,3.60870361328125,34.09888888888891,0.013698697784374572,34.09,34.13,0.13559322033898305,-0.0021465428276571867,0,1,0
0,0.03482861412057099,0.007607564633202092,0.012384963440805145,0.05779649605709067,0.03482859763211761,0.007607561031652677,0.01238495757755454,0.05779646869525452,2.3963928008860757e-05,5.234406702537522e-06,8.521509677656977e-06,3.976704516239923e-05,2.3963928008860757e-05,5.234406702537522e-06,8.521509677656977e-06,3.976704516239923e-05,-40.41233898305083,242.44673167233447,-849.75,393.22,0.8474043865035563,0.029887147310791968,0.7891539521583592,0.8800162353603874,0.047731469392712986,0.02586096165920649,0.019208045133010387,0.104945875604508,0.057169628333564516,0.15978901770307408,5.858359108934508e-08,0.5673214241456217,-0.850986402369681,0.01373643008540291,-0.8719618278825317,-0.8274715313667589,-0.10846187695675985,7.602122028827507,-12.139892578125,10.870361328125,34.06684210526315,0.014886458551298066,34.05,34.09,0.05423728813559322,-0.0019649122807020615,0,1,0
0,0.033766109698400666,0.0013335296061712388,0.030274355077523685,0.035090729748947905,0.033766093712954824,0.0013335289748558294,0.03027434074513332,0.03509071313640453,2.3232868788593147e-05,9.175388767794029e-07,2.083035698982817e-05,2.4144277420028106e-05,2.3232868788593147e-05,9.175388767794029e-07,2.083035698982817e-05,2.4144277420028106e-05,41.57404761904764,112.59098076339441,-113.57,518.27,0.8750075669981503,0.006994304830308492,0.8664306265108122,0.8881937914764471,0.10472562984251661,0.005681374845566594,0.09584049449997553,0.11467257917779439,0.07234398684818594,0.09586950283847537,1.6811567086882917e-05,0.2938179827517051,-0.8806693142581883,0.0028291914608820834,-0.8834505133744657,-0.8737290398831447,-0.46548725061913576,3.129199520473438,-10.0189208984375,3.375244140625,34.07555555555557,0.018625616238046858,34.05,34.11,0.027210884353741496,0.003364293085655716,0,1,0
0,0.03505818667684363,0.0002443717229747007,0.034402676224458736,0.03577878327343708,0.035058170079706706,0.000244371607285006,0.0344026599376515,0.03577876633515756,2.4121886065770023e-05,1.6814066607686753e-07,2.367086021571383e-05,2.461769462434238e-05,2.4121886065770023e-05,1.6814066607686753e-07,2.367086021571383e-05,2.461769462434238e-05,-1.142,15.694500312778255,-34.43,23.73,0.8658040777974695,0.0014226762553723711,0.8620372255391069,0.8681579560207302,0.07804022778091937,0.011511297533271986,0.05624911523328611,0.09321800378986678,0.0409808399063184,0.03761775773870908,6.0748478402095074e-05,0.11816782113918523,-0.8637838653454328,0.010190580967718318,-0.8787370947624227,-0.845988977762554,1.1570754422558562,1.8761452440399038,-1.46484375,4.45098876953125,34.126666666666665,0.01527525231651944,34.11,34.15,0.13559322033898305,0.0015892672858617268,0,1,0
0,0.03665874288298787,0.0031969602009866275,0.027522140979566984,0.04678763966526387,0.036658725528120606,0.0031969586874917434,0.027522127950121197,0.04678761751520604,2.5223153361832747e-05,2.1996776512099814e-06,1.8936688172571062e-05,3.219236989337081e-05,2.5223153361832747e-05,2.1996776512099814e-06,1.8936688172571062e-05,3.219236989337081e-05,10.400271186440673,194.14604109922692,-522.31,416.22,0.8599700652211446,0.003452071064073832,0.8555379244617002,0.8660942340055977,0.03393348207653557,0.009310789636111382,0.017046178353715667,0.051712568256959496,0.011989091745601208,0.03240835776918111,1.355927160551218e-07,0.13329859412979594,-0.8262794347982357,0.00955268318359854,-0.8437286765737608,-0.8131529252326015,0.11261639464877675,1.8662453320594714,-3.106689453125,2.97088623046875,34.140526315789465,0.009986139979477105,34.13,34.15,0.13559322033898305,0.0010175438596489203,0,1,0
0,0.03496903320720157,0.0034684240804640993,0.03096240860201286,0.043347372042818,0.03496901665227137,0.003468422438453632,0.03096239394388635,0.04334735152144089,2.4060543764843286e-05,2.3864591534048063e-06,2.1303774194142445e-05,2.9825283871799426e-05,2.4060543764843286e-05,2.3864591534048063e-06,2.1303774194142445e-05,2.9825283871799426e-05,-28.085646258503395,273.3792635731417,-819.15,411.75,0.8490692242835329,0.007507869904879221,0.8350762221302994,0.8583661430023647,0.009678387642018465,0.0024546624962800538,0.005734052437377795,0.015175861646762077,0.005008878552774313,0.017142970619306374,9.824204691422089e-08,0.07403908125083869,-0.8111043620630787,0.0009287238347805686,-0.8131111284006625,-0.8100696450596558,-0.34945750650637797,2.199912185578916,-3.34320068359375,3.85589599609375,34.15666666666665,0.004714045207909379,34.15,34.16,0.10884353741496598,-0.0002476780185758021,0,1,0
0,0.033603046452755136,0.0002536161887631042,0.033026569175480386,0.03371462269996956,0.033603030544506016,0.00025361606869692203,0.03302655354014544,0.03371460673889847,2.3120672653943212e-05,1.745013473220856e-07,2.2724025807085277e-05,2.3197443011399553e-05,2.3120672653943212e-05,1.745013473220856e-07,2.2724025807085277e-05,2.3197443011399553e-05,16.550271186440703,67.0385910104935,-38.23,384.04,0.8391604128293423,0.004164062600388654,0.8286230410421457,0.846432550456655,0.0066611487079163674,0.001367805398480035,0.004258096528455829,0.008656123707127032,0.006422217841858337,0.01817167006607157,4.5155258840412493e-07,0.06565067184005127,-0.8200842571731158,0.003978967217260381,-0.8264455220756646,-0.8136977375400494,0.08616104315291563,1.721291159689656,-2.58941650390625,3.3538818359375,34.156315789473666,0.00482376388942624,34.15,34.16,0.13559322033898305,0.0001052631578947159,0,1,0
0,0.03370994206374858,5.655634264419378e-05,0.033026569175480386,0.03371462269996956,0.03370992610489327,5.655631586946713e-05,0.03302655354014544,0.03371460673889847,2.3194222486200163e-05,3.8913754043673444e-08,2.2724025807085277e-05,2.3197443011399553e-05,2.3194222486200163e-05,3.8913754043673444e-08,2.2724025807085277e-05,2.3197443011399553e-05,1.1704406779661012,19.3951622347143,-37.95,23.64,0.8306577840027517,0.0032725116589276742,0.8268478210541582,0.8383940210573253,0.007278169306794284,0.0009943806854626255,0.006014696892226855,0.009117199642515658,0.0032964351941344033,0.006479523235318699,1.2647664328346853e-06,0.02165111791279621,-0.8305894230582664,0.0018797449707089122,-0.8332074653875681,-0.8270278149899154,0.4379679614477486,1.2872839203731923,-1.76239013671875,2.72674560546875,34.17388888888888,0.01007686508178836,34.15,34.18,0.10847457627118644,0.0015170278637772648,0,1,0
0,0.033686728638165984,0.00013570014315538646,0.033026569175480386,0.03371462269996956,0.03368671269030029,0.00013570007891264944,0.03302655354014544,0.03371460673889847,2.3178250422035485e-05,9.336887336688697e-08,2.2724025807085277e-05,2.3197443011399553e-05,2.3178250422035485e-05,9.336887336688697e-08,2.2724025807085277e-05,2.3197443011399553e-05,-1.6241016949152538,18.41306210431754,-36.77,23.86,0.822065453153553,0.002993575414044132,0.8180300006719925,0.8279388753785499,0.0025065633594460847,0.0015076147997193064,0.000694297899259055,0.005582280678785729,4.790120297659392e-07,1.8741492765469137e-07,3.0583306794354503e-07,1.039752979062336e-06,-0.8349456877580931,0.000898287028547639,-0.8364561993174042,-0.833415107199549,-0.20667613292154544,1.588126819048841,-2.5970458984375,2.92816162109375,34.19894736842104,0.014471291668282149,34.18,34.21,0.13559322033898305,-0.00031578947368422246,0,1,0
0,0.034538414674868165,0.0014076658394434863,0.033026569175480386,0.03853099737139378,0.034538398323800075,0.0014076651730307334,0.03302655354014544,0.03853097913016968,2.3764255446496903e-05,9.68548525077034e-07,2.2724025807085277e-05,2.651136344159949e-05,2.3764255446496903e-05,9.68548525077034e-07,2.2724025807085277e-05,2.651136344159949e-05,1.8734693877551012,19.92175603388298,-38.46,35.6,0.8154118226795339,0.00234165668630629,0.8077768807894004,0.8172979979286749,0.00025953554415820713,0.00016151108672625067,7.345516420988987e-05,0.0006129551562518848,2.973149917888274e-07,6.074427808040539e-08,1.9387414419052076e-07,3.6757046096604074e-07,-0.8388795066384672,0.0014726161191344776,-0.841432575519619,-0.8366563644433964,-0.4487607970131242,2.052483091387328,-3.18603515625,3.52935791015625,34.218888888888884,0.01369869778437457,34.21,34.25,0.13605442176870747,0.0021465428276571867,0,1,0
0,0.04081046721102794,0.0017190620255565715,0.034402676224458736,0.044035425567307176,0.040810447890664354,0.0017190612117236137,0.0344026599376515,0.04403540472019392,2.807975921371556e-05,1.1828055655786907e-06,2.367086021571383e-05,3.02987010761137e-05,2.807975921371556e-05,1.1828055655786907e-06,2.367086021571383e-05,3.02987010761137e-05,-39.669966101694925,306.9184644428078,-805.01,848.5,0.813256933441122,0.0036998197019436716,0.8060518913622603,0.8178619554473241,0.003637163724024042,0.003574773391965898,3.107873881755412e-05,0.008224722028412356,0.005316677118534407,0.01669050410177513,5.251116648326802e-07,0.07249396966433991,-0.8445210870023513,0.0016492038298209209,-0.847123660621091,-0.841762041062637,0.24646613452140861,3.388212139356378,-4.26788330078125,6.15997314453125,34.26333333333333,0.024944382578493466,34.23,34.29,0.05423728813559322,0.0041279669762642485,0,1,0
0,0.03565790900562142,0.002775034709867813,0.032338515650991204,0.044035425567307176,0.03565789212456576,0.0027750333961195713,0.03233850034139241,0.04403540472019392,2.4534526737097952e-05,1.9093706048465573e-06,2.2250608602771e-05,3.02987010761137e-05,2.4534526737097952e-05,1.9093706048465573e-06,2.2250608602771e-05,3.02987010761137e-05,40.16064406779661,235.0972698395834,-710.77,793.46,0.814486837460362,0.0054682561649274175,0.8074761001509267,0.8254018458354213,0.008831078054396002,0.0031551865589388127,0.0037403482791464773,0.013386430715302194,0.005531745948905519,0.01716150936038741,3.0259790595454916e-07,0.07067033392264793,-0.8492037833205979,0.0009666586475131609,-0.850602021444091,-0.8473909974484278,0.5452437672958185,3.209432497373327,-5.24139404296875,4.73785400390625,34.333157894736836,0.030271165988523623,34.29,34.39,0.08135593220338982,0.004947368421052843,0,1,0
0,0.03429034095515437,0.0002898217292266843,0.03371462269996956,0.035090729748947905,0.03429032472152853,0.00028982159202018895,0.03371460673889847,0.03509071313640453,2.3593567610927826e-05,1.9941267345718732e-07,2.3197443011399553e-05,2.4144277420028106e-05,2.3593567610927826e-05,1.9941267345718732e-07,2.3197443011399553e-05,2.4144277420028106e-05,-0.822949152542372,19.916972077256826,-43.56,52.75,0.8046080136831999,0.0025884687724575636,0.8014845914430037,0.8092322694242079,0.001408387472774908,0.0008729894368914332,0.00039939100403923176,0.0033104451205032246,5.405815088879872e-07,2.1839679647910335e-07,2.7327164578427876e-07,9.328415497989601e-07,-0.8519949567804107,0.0008648011032391552,-0.8536050712094921,-0.8507280343591376,-0.15421603135059533,2.1139370278928857,-2.94342041015625,3.973388671875,34.37166666666667,0.021147629234081405,34.34,34.39,0.13559322033898305,-0.002363261093910903,0,1,0
0,0.03420140886695509,0.0003782347960997188,0.03371462269996956,0.035090729748947905,0.03420139267543123,0.00037823461703698533,0.03371460673889847,0.03509071313640453,2.3532377632138865e-05,2.6024553813142646e-07,2.3197443011399553e-05,2.4144277420028106e-05,2.3532377632138865e-05,2.6024553813142646e-07,2.3197443011399553e-05,2.4144277420028106e-05,-1.0409523809523822,18.872395196516912,-36.93,23.67,0.7982968909134665,0.0026487670557188525,0.7945005796624443,0.8026756584460959,0.00014346920501051084,9.368156123040335e-05,3.772481335534428e-05,0.000352519093528932,5.401163191625325e-07,1.8518121504507426e-07,3.213557666732411e-07,7.972908110797251e-07,-0.8573453133277816,0.0024340818156604496,-0.8617833480670679,-0.8538673515394036,-0.15147269788638565,1.469139333710933,-2.21099853515625,2.74505615234375,34.369473684210526,0.015034586165352422,34.34,34.39,0.13605442176870747,0.0023157894736841236,0,1,0
0,0.03625763133439912,0.001656007226649717,0.033026569175480386,0.04197126499383966,0.036257614169424864,0.0016560064426679605,0.03302655354014544,0.04197124512393483,2.4947167408425945e-05,1.139420530033316e-06,2.2724025807085277e-05,2.8878449463170872e-05,2.4947167408425945e-05,1.139420530033316e-06,2.2724025807085277e-05,2.8878449463170872e-05,-3.292949152542371,166.37598779580938,-610.07,350.68,0.79420610364828,0.0032974826805135184,0.7903261025532826,0.8013271130938474,0.005393787775798855,0.005033717654418302,2.178497283734545e-05,0.012038398813888676,0.0074678134945762665,0.01947144454262739,3.5174239682023156e-07,0.07843483945013917,-0.8675438908679203,0.0031366581938620944,-0.8725597953843258,-0.8623745713806461,0.4014287718400946,2.0128407371066555,-2.46429443359375,3.6590576171875,34.3811111111111,0.009938079900000618,34.37,34.39,0.16271186440677965,-0.0003302373581011868,0,1,0
0,0.0342716184102703,0.0002930541815078309,0.033026569175480386,0.035090729748947905,0.03427160218550805,0.000293054042771037,0.03302655354014544,0.03509071313640453,2.358068551013014e-05,2.0163677153612083e-07,2.2724025807085277e-05,2.4144277420028106e-05,2.358068551013014e-05,2.0163677153612083e-07,2.2724025807085277e-05,2.4144277420028106e-05,4.091322033898308,24.489360289823196,-79.94,57.14,0.783743123867916,0.004980666741959156,0.7773823034165888,0.793929010212183,0.003857247167061346,0.0022751144213667015,0.001134528879389141,0.008586380273985223,2.9689892771711677e-07,5.533415859773014e-08,2.23100949048316e-07,4.632272328150555e-07,-0.8764472766932047,0.0017330561310824248,-0.8786228334028725,-0.8730901039300591,0.2396875015149899,1.7867464131232806,-2.63214111328125,3.43475341796875,34.39888888888888,0.009938079899997086,34.39,34.41,0.13559322033898305,0.0016511867905053474,0,1,0
0,0.038568189453798654,0.002629515734487719,0.03371462269996956,0.041283211469350475,0.03856817119496722,0.0026295144896306185,0.03371460673889847,0.041283191925181796,2.6536953560751574e-05,1.8092458557577857e-06,2.3197443011399553e-05,2.8405032258856593e-05,2.6536953560751574e-05,1.8092458557577857e-06,2.3197443011399553e-05,2.8405032258856593e-05,-0.8099322033898428,156.48003257034338,-673.93,331.6,0.7811336370516401,0.002713205301396355,0.7767427806829628,0.7846706666191763,0.002351563315276533,0.0012338898227394611,0.0006079680375800249,0.003858925548259164,0.002281189153413182,0.005898007144643682,5.04014496062466e-07,0.0238065699355675,-0.8784715741385659,0.0003818832631732405,-0.8788489593425117,-0.8776601261094463,0.11028261397671758,2.3217021034846246,-3.29437255859375,4.82330322265625,34.39315789473683,0.0148864585512951,34.37,34.41,0.05423728813559322,-0.0008421052631579515,0,1,0
0,0.0395420147951331,0.00034338137535831276,0.039219050895882956,0.03990710442037213,0.03954199607527619,0.00034338121279577614,0.03921903232892271,0.03990708552767574,2.72069968846735e-05,2.362645418558282e-07,2.6984780645913764e-05,2.745819785022804e-05,2.72069968846735e-05,2.362645418558282e-07,2.6984780645913764e-05,2.745819785022804e-05,1.0042517006802687,31.202140340928764,-62.66,113.26,0.7815222261791365,0.00150226490333736,0.7778867942735171,0.7832926350138765,0.0011403587029042892,0.0005095969421120096,0.00046495594542450336,0.002277389316900743,0.00016691013100062282,0.0006637773536123315,3.226233590124944e-07,0.0029035000604386366,-0.876788865359301,0.00034964545063343073,-0.8775341830752734,-0.8764475062704694,-0.5197984113290943,2.1032714708151197,-3.45916748046875,3.5888671875,34.422222222222224,0.024165070189924833,34.39,34.47,0.13605442176870747,0.004355005159958925,0,1,0
0,0.039120757535241774,0.0005011997639666566,0.037842943846904606,0.04059515794486131,0.039120739014815144,0.0005011995266902328,0.03784292593141665,0.04059513872642877,2.691714961672601e-05,3.448519375527191e-07,2.6037946237285214e-05,2.7931615054542318e-05,2.691714961672601e-05,3.448519375527191e-07,2.6037946237285214e-05,2.7931615054542318e-05,0.9610847457627127,16.121415828482686,-39.29,23.13,0.7780723816710535,0.002697049362375754,0.7727049998835438,0.7816081293444064,0.00017028003388695504,0.00011007274285272519,4.484734649172331e-05,0.0004130713364034508,4.1127530380932084e-07,5.069858490591186e-07,2.0230503610350892e-07,2.4354325888914247e-06,-0.8780825814744173,0.0010672704840516193,-0.8800622814042796,-0.8766351433408048,-0.13880007911852513,1.947190063091524,-2.593994140625,3.67279052734375,34.470000000000006,0.012977713690460729,34.45,34.49,0.13559322033898305,0.0005614035087717931,0,1,0
0,0.03464907377039065,0.0009664911139391839,0.033026569175480386,0.03990710442037213,0.03464905736693462,0.0009664906563859892,0.03302655354014544,0.03990708552767574,2.384039475509665e-05,6.649969876912967e-07,2.2724025807085277e-05,2.745819785022804e-05,2.384039475509665e-05,6.649969876912967e-07,2.2724025807085277e-05,2.745819785022804e-05,3.805322033898298,187.98244898551354,-719.38,456.56,0.7763253765997735,0.003468930116761497,0.7718926473698013,0.7842152881588427,0.00152605199144186,0.0008456735387707988,3.9922291562930376e-05,0.0032340349978263617,0.0025702514640048666,0.006459135446278951,3.191394833401695e-07,0.02334511622934469,-0.8827293165664151,0.0014634819470658773,-0.8850859658391825,-0.8803324416245684,0.5922597422941553,2.5278665545065957,-3.839111328125,4.08782958984375,34.507777777777775,0.01617802197617896,34.49,34.53,0.10847457627118644,-0.0008255933952528497,0,1,0
0,0.03392525132991525,0.0009882019202024158,0.033026569175480386,0.03715489032241543,0.03392523526912896,0.000988201452370957,0.03302655354014544,0.037154872732663616,2.3342366645373273e-05,6.799351703162272e-07,2.2724025807085277e-05,2.5564529032970932e-05,2.3342366645373273e-05,6.799351703162272e-07,2.2724025807085277e-05,2.5564529032970932e-05,-4.571288135593218,25.171431069160924,-80.97,37.54,0.7721212734120287,0.0019445538583439353,0.7693779429733704,0.7758588406668008,0.0018736143471664974,0.0007804062970327548,0.0007467110757776495,0.0031658839820419508,0.0015154908558192921,0.006414721207310556,9.5941482620987e-07,0.028730839280251733,-0.8873791987918043,0.0011951806364429588,-0.8892966858734332,-0.8853401541026311,-0.07850135822154157,1.1459411788036167,-2.03094482421875,2.16217041015625,34.53421052631579,0.020600406095557907,34.5,34.57,0.10847457627118644,0.000807017543859476,0,1,0
0,0.03729530940904584,0.0006854216030411152,0.03577878327343708,0.041283211469350475,0.037295291752817365,0.0006854212785509676,0.03577876633515756,0.041283191925181796,2.5661144788953498e-05,4.7160630320038566e-07,2.461769462434238e-05,2.8405032258856593e-05,2.5661144788953498e-05,4.7160630320038566e-07,2.461769462434238e-05,2.8405032258856593e-05,0.9734693877551042,130.43653331539247,-391.22,259.27,0.7681543002617559,0.00414873014500419,0.7614061280140018,0.7761663356579728,0.001699497689262842,0.0008339819160172326,0.0005660215501477937,0.00302621448666975,3.3976808078941327e-07,1.1617057967245432e-07,2.583917766141308e-07,7.167406960752187e-07,-0.8914323060231722,0.0012313963255142781,-0.8935618408015473,-0.8895055879693654,-0.2514652223800016,2.6106854712773275,-3.302001953125,4.937744140625,34.56888888888889,0.022580446036558118,34.53,34.59,0.10884353741496598,-0.0010526315789472984,0,1,0
0,0.03836363300057218,0.0006577322770326617,0.03715489032241543,0.03990710442037213,0.03836361483858106,0.0006577319656511087,0.037154872732663616,0.03990708552767574,2.6396207905414963e-05,4.5255458288836255e-07,2.5564529032970932e-05,2.745819785022804e-05,2.6396207905414963e-05,4.5255458288836255e-07,2.5564529032970932e-05,2.745819785022804e-05,-1.3333898305084746,18.359882076554342,-44.32,37.94,0.7634341667454498,0.0009411246883699297,0.7622532149092335,0.765560439782966,0.001406924660637501,0.0009270878293367074,0.0003211631946171903,0.002603116309783267,0.0015149682928605058,0.005605494692586588,3.185646178446855e-07,0.02457013867703472,-0.896608968317481,0.0017178178803138081,-0.8993964820330365,-0.8938512730675284,0.41493916785239876,1.8309538347606842,-2.74810791015625,3.61785888671875,34.65388888888887,0.019759354715309145,34.59,34.68,0.10847457627118644,0.0027141382868936417,0,1,0
0,0.038863322543085874,0.0009775248490890005,0.03715489032241543,0.044035425567307176,0.03886330414453336,0.0009775243863122483,0.037154872732663616,0.04403540472019392,2.6740020730758098e-05,6.725887808612347e-07,2.5564529032970932e-05,3.02987010761137e-05,2.6740020730758098e-05,6.725887808612347e-07,2.5564529032970932e-05,3.02987010761137e-05,0.6026101694915252,20.68748743991995,-32.17,64.86,0.7569634672401332,0.002130909531140745,0.7531990443357812,0.7613213882213112,0.0006854293405751806,0.0004324717539535092,0.0001833200063524515,0.0016158767045676955,4.150886635335697e-07,3.080919553289182e-07,2.3267005776032856e-07,1.4153251312772064e-06,-0.9013865892415456,0.0007758723648106572,-0.9021267398514838,-0.8996934956233524,0.05426619839727435,1.565880449809777,-2.84881591796875,3.44390869140625,34.71473684210527,0.02816650139002095,34.66,34.75,0.08135593220338982,0.004140350877193131,0,1,0
0,0.038858641906864895,0.0015149795813547346,0.03715489032241543,0.043347372042818,0.03885862351052822,0.0015149788641378493,0.037154872732663616,0.04334735152144089,2.6736800205558692e-05,1.0423860535132758e-06,2.5564529032970932e-05,2.9825283871799426e-05,2.6736800205558692e-05,1.0423860535132758e-06,2.5564529032970932e-05,2.9825283871799426e-05,-0.6294897959183564,138.47936207423834,-610.08,313.17,0.7751822115351004,0.011521990925502521,0.7565758007798898,0.7925587808784121,0.016382152646351778,0.009808013364937378,0.00012657440142121903,0.027276757958736072,0.020821994531168734,0.05125570210294323,5.323668297307904e-07,0.20863847943186872,-0.8988143847270464,0.0023484877896947317,-0.9018216797615364,-0.8943421787927358,-0.13662768948462703,2.2779969455247295,-3.643798828125,4.20379638671875,34.77222222222222,0.02393406580948749,34.73,34.79,0.10884353741496598,0.003962848297213655,0,1,0
0,0.03834968596967033,0.0003519457398778205,0.03715489032241543,0.039219050895882956,0.03834966781428203,0.0003519455732607703,0.037154872732663616,0.03921903232892271,2.638661161073293e-05,2.4215727746904213e-07,2.5564529032970932e-05,2.6984780645913764e-05,2.638661161073293e-05,2.4215727746904213e-07,2.5564529032970932e-05,2.6984780645913764e-05,-0.16122033898305071,16.008282576627202,-32.78,25.45,0.7792733607826277,0.00235479145469462,0.775459712497856,0.782233876552068,0.00914655162849482,0.00514739706221693,0.002656624860916372,0.01873733334942049,1.1456608650307387e-06,1.8241646102281523e-06,3.597275507194464e-07,8.40895316200907e-06,-0.8872695592972317,0.003865867412591025,-0.8936640318497772,-0.8811322291987251,0.6082908687165594,1.1816048306540405,-1.13983154296875,3.16009521484375,34.81578947368422,0.020343313779040695,34.79,34.84,0.10847457627118644,0.003561403508772143,0,1,0
0,0.040337722952705525,0.00043376140499436883,0.03853099737139378,0.041283211469350475,0.040337703856147114,0.00043376119964440253,0.03853097913016968,0.041283191925181796,2.775448616857434e-05,2.9845078091028354e-07,2.651136344159949e-05,2.8405032258856593e-05,2.775448616857434e-05,2.9845078091028354e-07,2.651136344159949e-05,2.8405032258856593e-05,-0.10200000000000035,22.063270031311685,-35.66,39.23,0.780204046548059,0.001223999947073681,0.7778436051316397,0.7821710674437579,0.000993404423100664,0.0006184848161407042,0.0002806740079086332,0.0023460293453807183,3.995111513837402e-07,1.335382065835962e-07,2.4353186347039757e-07,6.714230418895448e-07,-0.8773747804598386,0.001498155918680521,-0.8805498804249179,-0.8758627885844644,-0.2691199681124922,1.94417521141759,-2.630615234375,3.75518798828125,34.86611111111111,0.02214570158665941,34.84,34.89,0.05423728813559322,0.003973168214654057,0,1,0
0,0.04067419111997157,0.00033482558201619893,0.03990710442037213,0.04197126499383966,0.040674171864123414,0.00033482542350412193,0.03990708552767574,0.04197124512393483,2.798599405774055e-05,2.303777036658491e-07,2.745819785022804e-05,2.8878449463170872e-05,2.798599405774055e-05,2.303777036658491e-07,2.745819785022804e-05,2.8878449463170872e-05,-7.339152542372885,113.99060883542839,-503.69,221.59,0.7796932215815364,0.0012843770800921221,0.7766947108516212,0.7816608432210405,0.0001247819704422387,6.149989684804437e-05,4.482535610269234e-05,0.0002477386167482527,0.00011312107274753498,0.00046639080144717155,7.001128087278166e-07,0.002091667323797111,-0.8774938255399778,0.0012192827268576113,-0.8797492318234619,-0.8759118575747936,-0.49892737906860657,1.9811306143404195,-3.48358154296875,3.2501220703125,34.89631578947367,0.00929659038560641,34.89,34.91,0.08135593220338982,0.0013684210526313067,0,1,0
0,0.04171383000168377,0.00041088415273695495,0.03990710442037213,0.042659318518328826,0.041713810253653005,0.00041088395821746535,0.03990708552767574,0.04265929832268786,2.8701320577203023e-05,2.8271002176783314e-07,2.745819785022804e-05,2.935186666748515e-05,2.8701320577203023e-05,2.8271002176783314e-07,2.745819785022804e-05,2.935186666748515e-05,5.253775510204089,227.25410770113274,-802.81,611.95,0.7752326480247508,0.002930205431434304,0.7716982836761056,0.7801247713096112,0.00012353504389691838,6.018888569701525e-05,4.153346900404751e-05,0.0002184089669425371,3.447011612834528e-07,1.2240270309065658e-07,2.0466398258393512e-07,6.58062479501776e-07,-0.882057951449736,0.0010736121514669378,-0.8834424645165071,-0.8800389764722408,0.6310394324972375,2.2094600038061607,-2.89459228515625,4.00848388671875,34.91888888888887,0.01662958838566456,34.91,34.95,0.10884353741496598,0.0009907120743035606,0,1,0
0,0.041755955727672905,0.00031903952630345044,0.041283211469350475,0.04197126499383966,0.04175593595969913,0.000319039375264756,0.041283191925181796,0.04197124512393483,2.8730305303997782e-05,2.1951606267908268e-07,2.8405032258856593e-05,2.8878449463170872e-05,2.8730305303997782e-05,2.1951606267908268e-07,2.8405032258856593e-05,2.8878449463170872e-05,-3.3748813559322035,61.3660196418249,-149.71,104.26,0.7743770018810069,0.0013597313704032865,0.7723582606389957,0.7770325975165755,0.0003161734743516336,0.00032337245984365317,2.3018657072325425e-05,0.0011425850553673843,0.0008123338452389645,0.002524028114822934,8.817195263314138e-07,0.010879464740435559,-0.8834139188126764,0.00020515046481833985,-0.8836125852621264,-0.8829603057825248,0.4741984718599713,2.2386047065316426,-2.67486572265625,4.01153564453125,34.95666666666667,0.009428090415818758,34.95,34.97,0.13559322033898305,0.001486068111454813,0,1,0
0,0.041817847653919694,0.00028639563764404396,0.041283211469350475,0.04197126499383966,0.04181782785664523,0.00028639550205951744,0.041283191925181796,0.04197124512393483,2.8772890221668464e-05,1.970553413005298e-07,2.8405032258856593e-05,2.8878449463170872e-05,2.8772890221668464e-05,1.970553413005298e-07,2.8405032258856593e-05,2.8878449463170872e-05,7.625084745762709,59.40856595123845,-111.87,167.35,0.7762109881313843,0.001370334036341203,0.7736458262399566,0.7788415883395406,0.0006408285838544883,0.0003351547884971454,0.00019591898395341986,0.0011886613043130293,7.833884111017528e-07,5.631502979956441e-07,2.723249717499765e-07,1.8726361040478923e-06,-0.8822364412234227,0.0003332170056741108,-0.8828766260482455,-0.881861267266399,-0.3599095876991897,1.953760896863899,-3.38592529296875,3.07769775390625,35.01315789473684,0.02656721992447069,34.97,35.05,0.10847457627118644,0.003999999999999977,0,1,0
0,0.04079174466614394,0.0014176070073196798,0.036466836797926255,0.044035425567307176,0.04079172535464402,0.0014176063362006108,0.03646681953391059,0.04403540472019392,2.80668771129178e-05,9.753885741953924e-07,2.5091111828656657e-05,3.02987010761137e-05,2.80668771129178e-05,9.753885741953924e-07,2.5091111828656657e-05,3.02987010761137e-05,-2.502169491525424,74.24769240291387,-198.0,193.17,0.7756319836859205,0.004531307166469112,0.7687835141532822,0.7850560185963557,0.0016834124568176855,0.0030538428234760024,3.902387542935605e-05,0.009390403463681862,0.005802692313460353,0.01877036665973732,1.665578076106601e-07,0.07955820513135498,-0.882321414373769,0.0003539364395016903,-0.8829917774715107,-0.8818741366237823,-0.636674985728795,1.2723336215404233,-2.72674560546875,1.75933837890625,35.02666666666665,0.015986105077708517,35.0,35.05,0.05423728813559322,0.001919504643962701,0,1,0
0,0.04082918975591205,0.00044320459701648176,0.04059515794486131,0.04197126499383966,0.040829170426684866,0.0004432043871959514,0.04059513872642877,0.04197124512393483,2.8092641314513157e-05,3.0494819631155006e-07,2.7931615054542318e-05,2.8878449463170872e-05,2.8092641314513157e-05,3.0494819631155006e-07,2.7931615054542318e-05,2.8878449463170872e-05,2.444183673469388,22.074743745023202,-66.59,41.55,0.7809243380731637,0.0036453535809722556,0.7751827780912083,0.7848461596868697,0.007461880135463003,0.0028914903595786386,0.00279025605066229,0.011223199625061651,0.0022637420371638102,0.008800101000047045,3.866169570460043e-07,0.039456544232519764,-0.8839680871828014,0.0005118616804938661,-0.8847397158162592,-0.8830910448557399,0.8226365673449613,1.5910185691478853,-1.6082763671875,3.48968505859375,35.05631578947369,0.015963948303266452,35.03,35.07,0.13605442176870747,0.0019298245614036856,0,1,0
0,0.04184574171572331,0.00026572662750330624,0.041283211469350475,0.04197126499383966,0.04184572190524333,0.00026572650170383796,0.041283191925181796,0.04197124512393483,2.8792082811032552e-05,1.8283396949077716e-07,2.8405032258856593e-05,2.8878449463170872e-05,2.8792082811032552e-05,1.8283396949077716e-07,2.8405032258856593e-05,2.8878449463170872e-05,-1.7735254237288114,45.88556430186078,-224.72,80.5,0.7731404687726738,0.0014931086572317045,0.7705189444409646,0.7762621223757946,0.0010488515013714987,0.0006506161401088784,0.0002976535993488948,0.002468034758475098,8.982376115094095e-07,3.775723803567985e-07,3.6028753717942674e-07,1.5742999996534376e-06,-0.8850668239403297,0.00011708961894460996,-0.885173592848397,-0.884799711432283,0.3292219852609661,2.1510292452861663,-2.93426513671875,3.72161865234375,35.087777777777795,0.0147405546238017,35.07,35.11,0.13559322033898305,0.002641898864809084,0,1,0
0,0.04185424908831421,0.00025849658425616015,0.041283211469350475,0.04197126499383966,0.04185422927380669,0.00025849646187951607,0.041283191925181796,0.04197124512393483,2.879793633318555e-05,1.7785931746254123e-07,2.8405032258856593e-05,2.8878449463170872e-05,2.879793633318555e-05,1.7785931746254123e-07,2.8405032258856593e-05,2.8878449463170872e-05,0.025627118644068334,15.373432846572626,-39.43,34.12,0.7729869623840596,0.0016967306447527928,0.7685595053461506,0.7745645737091748,0.0001116725273712983,6.904554492530718e-05,3.223970195558083e-05,0.000262836986805783,7.091594777730757e-07,2.8451787101711966e-07,3.9581189474049636e-07,1.3275470868664464e-06,-0.8850562749526367,7.197358962299226e-05,-0.8851626792449696,-0.8849402508119194,-0.1353065900243368,1.8855405123987874,-2.593994140625,3.57208251953125,35.12333333333333,0.02309401076758363,35.09,35.15,0.13559322033898305,0.003632610939112351,0,1,0
0,0.04184574171572331,0.00026572662750330624,0.041283211469350475,0.04197126499383966,0.0418457219052433,0.00026572650170383785,0.041283191925181796,0.04197124512393483,2.8792082811032552e-05,1.8283396949077724e-07,2.8405032258856593e-05,2.8878449463170872e-05,2.8792082811032552e-05,1.8283396949077724e-07,2.8405032258856593e-05,2.8878449463170872e-05,-0.5955254237288135,14.479811157767484,-35.95,35.12,0.7725433329549672,0.0007289789784522109,0.7711856519980347,0.7738104097488016,1.1952780897167015e-05,7.4563907117354314e-06,3.5012270913918575e-06,2.8548274439088247e-05,4.123355468115045e-07,5.916110961652464e-08,2.83731652139411e-07,4.999220124437664e-07,-0.884975797453599,7.538514622305951e-05,-0.885156086938981,-0.8849104479642904,-0.2696498747794859,1.594406060311858,-2.459716796875,2.73590087890625,35.1457894736842,0.008153649149908732,35.13,35.15,0.10847457627118644,0.0007719298245612499,0,1,0
0,0.041915097359187393,0.00018839197382646485,0.041283211469350475,0.04197126499383966,0.04191507751587328,0.0001883918846385265,0.041283191925181796,0.04197124512393483,2.883980316077798e-05,1.296236388446486e-07,2.8405032258856593e-05,2.8878449463170872e-05,2.883980316077798e-05,1.296236388446486e-07,2.8405032258856593e-05,2.8878449463170872e-05,-0.180680272108844,12.3898486624077,-29.02,24.24,0.771028172329494,0.0014601226871140756,0.7682846643835054,0.7739950684112099,1.696463830323714e-06,6.406879496562415e-07,1.0242002203878429e-06,3.1415386566792903e-06,3.7986332002570365e-06,1.1361883881736728e-05,2.718933459570149e-07,5.007574540256366e-05,-0.8857426038686309,0.0003922403506351656,-0.886476753832169,-0.8851963840915771,0.12167559072338321,2.5089217479188766,-3.24249267578125,4.93011474609375,35.1661111111111,0.0116136360890937,35.15,35.18,0.13605442176870747,0.0020536635706915906,0,1,0
0,0.04190105545052436,0.00023719328985695698,0.041283211469350475,0.042659318518328826,0.04190103561385791,0.0002371931775656521,0.041283191925181796,0.04265929832268786,2.8830141585179714e-05,1.6320152454644195e-07,2.8405032258856593e-05,2.935186666748515e-05,2.8830141585179714e-05,1.6320152454644195e-07,2.8405032258856593e-05,2.935186666748515e-05,1.4603050847457641,16.24585536427962,-33.84,43.13,0.7707101847661472,0.0010565435006746492,0.7690373716324844,0.7722744741520803,0.00020527923684020662,0.00011272962705123576,4.241083991002599e-06,0.0003456588972682164,0.00019756701704064803,0.0006950522772094655,4.226075562214007e-07,0.003102351642138023,-0.8879145468601112,0.0008744131008011194,-0.8894341042191808,-0.8865916703235162,-0.34259247129075876,1.9288101359575804,-3.20281982421875,3.19366455078125,35.214736842105275,0.012298233100575366,35.18,35.23,0.13559322033898305,0.0012807017543858222,0,1,0
0,0.041920125880532955,0.0001804750349496824,0.041283211469350475,0.04197126499383966,0.041920106034838235,0.00018047494950975608,0.041283191925181796,0.04197124512393483,2.8843263049336807e-05,1.2417636630497876e-07,2.8405032258856593e-05,2.8878449463170872e-05,2.8843263049336807e-05,1.2417636630497876e-07,2.8405032258856593e-05,2.8878449463170872e-05,-1.07806779661017,26.150382062778775,-70.56,65.03,0.7663011200944065,0.002069262069845042,0.7627590045129564,0.7695538104268971,5.313100028438305e-05,3.2442915699765124e-05,1.5596413174063625e-05,0.00012342075987021602,4.893031759006036e-07,2.9613316382204016e-07,2.409775249198262e-07,1.1394713412847318e-06,-0.8910757707663879,0.0008496736387302122,-0.8923686011641145,-0.8896169251617302,0.17503625370869533,1.9984713350654064,-2.60467529296875,3.92913818359375,35.225555555555566,0.01571348402636705,35.21,35.25,0.13559322033898305,-0.0004953560371516629,0,1,0
0,0.04195722308517653,9.728519695853884e-05,0.041283211469350475,0.04197126499383966,0.041957203221919384,9.728515090208536e-05,0.041283191925181796,0.04197124512393483,2.8868787887572732e-05,6.693735926935065e-08,2.8405032258856593e-05,2.8878449463170872e-05,2.8868787887572732e-05,6.693735926935065e-08,2.8405032258856593e-05,2.8878449463170872e-05,-1.521322033898305,16.101221027959635,-45.2,31.97,0.7654055855837212,0.0009191763410135179,0.7638503314714454,0.7681404450855042,6.280246668876461e-06,3.435957044301812e-06,2.264118233245782e-06,1.3895374181772564e-05,7.135731552729541e-07,2.0936012642548238e-07,4.238868789328411e-07,1.0630092111984948e-06,-0.8929865316360214,0.0002019345182579795,-0.8931739943384366,-0.8924855043039117,0.49712415368622054,2.023496216881077,-2.36053466796875,3.57208251953125,35.30473684210527,0.029623678483094978,35.25,35.33,0.13559322033898305,0.004631578947368247,0,1,0
0,0.04193381990407146,0.00015608360337340213,0.041283211469350475,0.04197126499383966,0.04193380005189376,0.00015608352948079095,0.041283191925181796,0.04197124512393483,2.8852685261575648e-05,1.0739377173192057e-07,2.8405032258856593e-05,2.8878449463170872e-05,2.8852685261575648e-05,1.0739377173192057e-07,2.8405032258856593e-05,2.8878449463170872e-05,1.1712925170068016,12.545352814527153,-31.68,30.08,0.7655439332285863,0.0011421659692701055,0.7634076855135199,0.7672070173959263,1.2439061301826667e-06,3.528357302817457e-07,9.341167584915044e-07,2.071913597135152e-06,6.375126683131949e-07,2.703187515726645e-07,3.274995387248777e-07,1.0284247804525433e-06,-0.8921818462622392,0.0004935704263436709,-0.89292301833342,-0.8913423673905575,-0.03535788940732591,1.5666495736878239,-2.36053466796875,3.43780517578125,35.36666666666666,0.029249881291305985,35.33,35.43,0.13605442176870747,0.00505675954592347,0,1,0
0,0.04193872192173536,0.00014605589312668122,0.041283211469350475,0.04197126499383966,0.04193870206723696,0.00014605582398135718,0.041283191925181796,0.04197124512393483,2.8856058108912873e-05,1.0049417688688185e-07,2.8405032258856593e-05,2.8878449463170872e-05,2.8856058108912873e-05,1.0049417688688185e-07,2.8405032258856593e-05,2.8878449463170872e-05,0.3983389830508463,13.433506260889661,-27.84,28.27,0.7674534288396224,0.0006786970192100211,0.7661460298674184,0.7686885715816174,9.539819549037758e-07,9.81363990448069e-08,7.92615373785808e-07,1.0645532224244421e-06,6.13416143165559e-07,1.3646561958521852e-07,4.736702213152416e-07,9.345712337753473e-07,-0.8906553926588003,0.00028788882000903564,-0.891244173286868,-0.8903569746478777,-0.08159688345364373,1.452014668324133,-2.43988037109375,2.78167724609375,35.4288888888889,0.012422599875000773,35.41,35.45,0.13559322033898305,0.000928792569659588,0,1,0
0,0.0419150973591874,0.0001883919738264647,0.041283211469350475,0.04197126499383966,0.04191507751587327,0.000188391884638526,0.041283191925181796,0.04197124512393483,2.8839803160777973e-05,1.2962363884464893e-07,2.8405032258856593e-05,2.8878449463170872e-05,2.8839803160777973e-05,1.2962363884464893e-07,2.8405032258856593e-05,2.8878449463170872e-05,1.081457627118645,15.225730972207382,-39.18,32.42,0.7685077732419477,0.0015441113456606103,0.7647959589788392,0.7703880775121761,0.0006125670629582544,0.00037353511035282083,8.092071327580283e-07,0.0010720251861715904,0.0006173862898266212,0.001848237970250458,1.6413654929138544e-07,0.007221752128918945,-0.8906151836985747,0.00016384146120558963,-0.8908595355395897,-0.8903696218348041,-0.2606408471800849,1.6202527307854444,-2.41241455078125,3.0242919921875,35.475263157894744,0.016973174206944178,35.45,35.49,0.13559322033898305,0.002245614035087634,0,1,0
0,0.03413587995986088,0.01376211165314746,0.0006880535244891746,0.06398897777749324,0.0341358637993595,0.013762105137931661,0.00068805319875303,0.06398894748403179,2.3487290279347086e-05,9.469060461729389e-06,4.734172043142766e-07,4.402780000122772e-05,2.3487290279347086e-05,9.469060461729389e-06,4.734172043142766e-07,4.402780000122772e-05,-4.8418027210884365,183.42487388856495,-695.84,300.42,0.7664498123257755,0.0026327498676197002,0.762267447676758,0.7718791566846356,0.0006005696270336948,0.0008727510706987829,8.5034128939978e-05,0.0031476688160366672,0.0020269640701978523,0.00831609398862849,1.5959265680862145e-07,0.03631492745700564,-0.8905070488997447,0.00037866779648265133,-0.890871233689061,-0.8896626562047233,0.5794132317857766,2.6007482798717887,-3.53240966796875,4.8095703125,35.50999999999999,0.018257418583505367,35.49,35.53,0.10884353741496598,0.0022291021671825713,0,1,0
0,0.013630898201366579,0.0006943075480448254,0.011696909916315968,0.014449124014272667,0.01363089174826948,0.0006943072193479206,0.01169690437880151,0.01444911717381363,9.378778669253117e-06,4.777203031896581e-07,8.048092473342702e-06,9.941761290599808e-06,9.378778669253117e-06,4.777203031896581e-07,8.048092473342702e-06,9.941761290599808e-06,3.447220338983052,70.48567978423962,-152.5,290.43,0.7755563569096828,0.0013590102198740778,0.771642222050252,0.7776685728323992,0.0050291846229403815,0.0012360314338610695,0.003556265246441484,0.007064200023956425,0.0036927343440146788,0.008202539326786886,1.6727485666057085e-06,0.03211477698846152,-0.8873576357090066,0.0013873301154251662,-0.8894832401398007,-0.8849955084596899,0.4740102119540458,2.7543423665078612,-3.80096435546875,4.85992431640625,35.55315789473686,0.014886458551295738,35.53,35.57,0.13559322033898305,0.002526315789473705,0,1,0
0,0.014467846559156686,0.0002531008322536357,0.013761070489783492,0.015137177538761842,0.01446783970983414,0.00025310071243143245,0.013761063975060599,0.01513717037256666,9.954643391397508e-06,1.7414675479511746e-07,9.468344086285531e-06,1.0415178494914085e-05,9.954643391397508e-06,1.7414675479511746e-07,9.468344086285531e-06,1.0415178494914085e-05,0.7749830508474577,18.82347086772754,-35.42,32.63,0.7768071960391804,0.001048097708602364,0.7746839747966139,0.7784744530197228,0.0017692273475952197,0.0009894177756735812,0.0005408020653639812,0.0037086510832274764,7.336854723110145e-07,2.81290365575692e-07,3.1799385766598243e-07,1.1566010975211372e-06,-0.8828193793125428,0.001044807120399569,-0.8847279760506117,-0.8813850030292864,-0.5116821629935231,2.0653318971747154,-3.46527099609375,3.29742431640625,35.59444444444446,0.01065740338513816,35.57,35.61,0.13559322033898305,0.00037151702786382786,0,1,0
0,0.01459324333359131,0.00027998469137315105,0.014449124014272667,0.015137177538761842,0.014593236424903816,0.00027998455882367445,0.01444911717381363,0.01513717037256666,1.0040923002314315e-05,1.9264427130008584e-07,9.941761290599808e-06,1.0415178494914085e-05,1.0040923002314315e-05,1.9264427130008584e-07,9.941761290599808e-06,1.0415178494914085e-05,-1.0090169491525427,20.0766632563329,-38.85,31.59,0.7753606412950361,0.0017446219760384755,0.7717404225715709,0.7778337446325482,0.00019435080931638998,0.0001270865888911001,5.061847362217004e-05,0.0004775788795182636,2.546037650237843e-07,3.061617963939459e-08,2.178850334686594e-07,3.495308241868722e-07,-0.8814916166607233,0.0003442397549659659,-0.8822574775724654,-0.881163346651457,-0.15099054530595726,1.7368847111877965,-2.58941650390625,3.12957763671875,35.6142105263158,0.008153649149911627,35.61,35.63,0.13559322033898305,0.0004912280701755154,0,1,0
0,0.014678475189102343,0.00032435154199039984,0.014449124014272667,0.015137177538761842,0.014678468240064664,0.00032435138843690846,0.01444911717381363,0.01513717037256666,1.0099567025371268e-05,2.2317101033400186e-07,9.941761290599808e-06,1.0415178494914085e-05,1.0099567025371268e-05,2.2317101033400186e-07,9.941761290599808e-06,1.0415178494914085e-05,0.13612244897959222,19.236710580143114,-39.1,30.72,0.773947330150233,0.002534172603162665,0.7699655669996828,0.7792804871560255,0.00028191524816680654,0.000477363910658186,1.55080663030802e-05,0.0014281158044422266,0.00086809557235443,0.0035226909038753554,4.212727996243766e-07,0.01539177080113801,-0.8835968177824994,0.000713384917004309,-0.8846773714465526,-0.8823943200979955,-0.08952564400419703,1.6952292127612136,-2.5482177734375,3.08990478515625,35.6188888888889,0.009938079900000618,35.61,35.63,0.13605442176870747,0.0003302373581011868,0,1,0
0,0.015286957897834314,0.00032617016108920483,0.014449124014272667,0.015825231063251018,0.015286950660730568,0.0003261700066747481,0.01444911717381363,0.01582522357131969,1.0518235301295438e-05,2.244223164298571e-07,9.941761290599808e-06,1.088859569922836e-05,1.0518235301295438e-05,2.244223164298571e-07,9.941761290599808e-06,1.088859569922836e-05,0.9463728813559315,17.942406620032514,-34.27,29.67,0.7739976049583028,0.0013618199750281162,0.7709188217707031,0.7764774147259544,0.0012884424609194687,0.0002355551700679655,0.0008060285863291071,0.0016343217378157575,0.0005904074041973143,0.0024256914763591017,6.765797212794633e-07,0.010591784064728986,-0.8849439400454812,0.00011952487240675398,-0.8850770100548497,-0.8846893324586601,-0.3532814454336992,2.5458124446782935,-3.62091064453125,4.11224365234375,35.62777777777777,0.006285393610548071,35.61,35.63,0.13559322033898305,0.0006604747162023736,0,1,0
0,0.015653217682128715,0.00029793591568552213,0.015137177538761842,0.015825231063251018,0.015653210271631406,0.00029793577463763316,0.01513717037256666,0.01582522357131969,1.0770241398149793e-05,2.049956627623852e-07,1.0415178494914085e-05,1.088859569922836e-05,1.0770241398149793e-05,2.049956627623852e-07,1.0415178494914085e-05,1.088859569922836e-05,-0.8804067796610164,15.374043296808987,-33.04,22.44,0.7739296184407564,0.0010991516140682047,0.7723599961605091,0.7760659656092099,0.00029798218980255504,0.00019156592214780152,7.869610832630643e-05,0.0007182670600470063,4.3718765504374955e-07,9.237119457998804e-08,3.389219169749533e-07,6.865050956803009e-07,-0.8837165613423658,0.0005728203387413527,-0.8846115990470212,-0.8827678370316614,0.5022474908947058,1.8651058688683617,-1.95159912109375,3.9947509765625,35.63315789473683,0.0148864585512951,35.61,35.65,0.13559322033898305,0.001964912280701737,0,1,0
0,0.017725569368982987,0.0012698075221044124,0.014449124014272667,0.01926549868569689,0.017725560977399496,0.001269806920956106,0.01444911717381363,0.01926548956508484,1.2196128930191591e-05,8.736947137625864e-07,9.941761290599808e-06,1.3255681720799745e-05,1.2196128930191591e-05,8.736947137625864e-07,9.941761290599808e-06,1.3255681720799745e-05,-0.40111864406779707,21.219922580958105,-59.29,39.44,0.7756757305996096,0.0015992876129199776,0.7732095379381941,0.7788759827948987,0.00021878481861654288,0.00022464488937000847,2.327386604790724e-05,0.0005651848751957659,0.00033600180201320893,0.0013743675643189917,3.6950612175741526e-07,0.006002621812884737,-0.8821055616392905,0.00027639427452081326,-0.8826701027275728,-0.8817872649598888,1.5714393873744377,7.58921284955763,-11.9842529296875,13.861083984375,35.6572222222222,0.004479032082387192,35.65,35.66,0.13559322033898305,1.031991744065842e-05,0,1,0
0,0.017861307819392387,0.00015803646792485014,0.017201338112229368,0.018577445161207715,0.01786129936354807,0.00015803639310772082,0.01720132996882575,0.018577436366331808,1.2289524160974656e-05,1.0873744579715845e-07,1.1835430107856916e-05,1.2782264516485466e-05,1.2289524160974656e-05,1.0873744579715845e-07,1.1835430107856916e-05,1.2782264516485466e-05,0.3920748299319733,16.57883299626997,-32.64,25.65,0.7749601571986191,0.0016337739427941791,0.7717771887621623,0.7781284871770285,0.00021446730396751138,0.00012898517311447157,5.957390165950233e-05,0.0004779969831564835,2.950927849800086e-07,9.378961152429318e-08,2.0596731312117963e-07,5.803407787932299e-07,-0.8818925467950706,0.00010593537751209391,-0.8821007912833365,-0.8817773343484654,-1.839648816012597,5.977404247588592,-12.16888427734375,5.12237548828125,35.668421052631565,0.009874559494366657,35.66,35.68,0.13605442176870747,0.0009824561403510308,0,1,0
0,0.017894040647019077,9.78503473237218e-05,0.017201338112229368,0.018577445161207715,0.017894032175678493,9.785030099971687e-05,0.01720132996882575,0.018577436366331808,1.2312046077065173e-05,6.732621260180195e-08,1.1835430107856916e-05,1.2782264516485466e-05,1.2312046077065173e-05,6.732621260180195e-08,1.1835430107856916e-05,1.2782264516485466e-05,-0.4327796610169491,15.19820878391879,-31.42,24.26,0.7751368885658549,0.0013545877259291083,0.7731534484360543,0.7780159324947927,5.166113344717411e-05,2.725244126632345e-05,1.8537823632366057e-05,9.33844239840842e-05,5.203524543621139e-05,0.00020327810341567656,7.009910976108445e-07,0.0008901191987023811,-0.88232021312761,9.750044650175035e-05,-0.8824390205554264,-0.8821297213811117,0.8008908973951869,0.9489304562139773,-1.153564453125,2.65960693359375,35.67555555555555,0.00831479419283228,35.66,35.68,0.13559322033898305,0.0011558307533541539,0,1,0
0,0.017889391636718474,6.591949208711867e-17,0.01788939163671854,0.01788939163671854,0.01788938316757881,3.122502256758253e-17,0.01788938316757878,0.01788938316757878,1.2308847312171157e-05,3.3881317890172014e-20,1.230884731217119e-05,1.230884731217119e-05,1.2308847312171157e-05,3.3881317890172014e-20,1.230884731217119e-05,1.230884731217119e-05,0.9550847457627119,17.44018474603606,-32.52,27.53,0.7762200777969461,0.001432410526913052,0.774111687972798,0.7792716174406902,0.0007644691316363794,0.0003274853479927218,7.802397626656642e-05,0.0011895715252473005,0.0006957317263306315,0.0028024481054558844,3.5474956433696747e-07,0.012248176232920627,-0.882473889916928,2.27393094155666e-05,-0.8825256996256687,-0.8824438430411279,0.011688147203692212,1.1500272100604239,-1.65252685546875,2.3956298828125,35.682222222222215,0.01685083432011589,35.66,35.71,0.13559322033898305,0.0005779153766771063,0,1,0
0,0.017907987677920883,0.00013728362898719775,0.017201338112229368,0.018577445161207715,0.017907979199977546,0.00013728356399481185,0.01720132996882575,0.018577436366331808,1.2321642371747225e-05,9.445839534284646e-08,1.1835430107856916e-05,1.2782264516485466e-05,1.2321642371747225e-05,9.445839534284646e-08,1.1835430107856916e-05,1.2782264516485466e-05,0.08935593220339,17.605421139054915,-32.37,27.99,0.7741003473593316,0.0013838343382853017,0.7718113864321497,0.7775321601958279,0.00015559987630132154,0.00010080073758094261,4.103353566335231e-05,0.0003785962195213421,4.4209330422918084e-07,2.3803642472307069e-07,2.6780873991832585e-07,1.010708866138496e-06,-0.8828138234259774,0.00021817565553121997,-0.8832509398143172,-0.8825391632362143,0.11404430304212547,1.2868554244956087,-1.849365234375,2.82440185546875,35.65999999999998,1.4210854715202004e-14,35.66,35.66,0.13559322033898305,0.0,0,1,0
0,0.017734930641425006,0.0006153924211615379,0.015137177538761842,0.01926549868569689,0.01773492224540975,0.0006153921298243854,0.01513717037256666,0.01926548956508484,1.220256998059042e-05,4.2342252341310825e-07,1.0415178494914085e-05,1.3255681720799745e-05,1.220256998059042e-05,4.2342252341310825e-07,1.0415178494914085e-05,1.3255681720799745e-05,1.3824489795918373,15.551237612531368,-30.32,26.64,0.7736604064885457,0.0010146212304692273,0.7712623982689361,0.7747804573846089,1.5867637736526086e-05,9.400811535075341e-06,4.913467026014261e-06,3.632914008254517e-05,5.532127774747435e-07,2.2234631097391725e-07,3.36303482200963e-07,1.016757577701477e-06,-0.8840427463637991,0.0004629583525855692,-0.8848262149123742,-0.883322025476554,0.20532347724100497,1.8018458552766332,-2.4261474609375,3.179931640625,35.65055555555554,0.011772011166896044,35.63,35.66,0.10884353741496598,-0.0005056759545922627,0,1,0
0,0.016826887214548177,0.0005276885421908226,0.014449124014272667,0.01788939163671854,0.01682687924841594,0.0005276882923741664,0.01444911717381363,0.01788938316757878,1.157778809190354e-05,3.6307761751256884e-07,9.941761290599808e-06,1.230884731217119e-05,1.157778809190354e-05,3.6307761751256884e-07,9.941761290599808e-06,1.230884731217119e-05,-2.5271864406779656,30.9485620467551,-85.21,89.21,0.7715032026035493,0.0014290002716141944,0.7684567077884593,0.7747491236253695,2.1911713640989565e-06,9.504366140484361e-07,1.3289098612507783e-06,4.395625620066071e-06,7.482421272582959e-07,3.677726985263828e-07,3.6799393556481876e-07,1.3300850699760498e-06,-0.8857263139060104,0.00046605413197968877,-0.8864377497973511,-0.884922215087198,-0.12203386936235072,2.4074687487942237,-3.80706787109375,4.21905517578125,35.64999999999999,7.105427357601002e-15,35.65,35.65,0.13559322033898305,0.0,0,1,0
0,0.017266424256437783,0.00025717054289290476,0.016513284587740193,0.018577445161207715,0.017266416082221316,0.0002571704211440321,0.01651327677007272,0.018577436366331808,1.1880212816373112e-05,1.7694693089281522e-07,1.1362012903542639e-05,1.2782264516485466e-05,1.1880212816373112e-05,1.7694693089281522e-07,1.1362012903542639e-05,1.2782264516485466e-05,0.8955593220338987,23.39808971506601,-44.66,36.07,0.7709702327380531,0.0012179551236921131,0.7686344973174059,0.7728619361863301,1.3055058745199581e-06,1.7754401835265338e-07,9.779061137670845e-07,1.495741429938925e-06,7.739823703436338e-07,3.329732735133616e-07,4.1673364417049697e-07,1.3951026359173967e-06,-0.8869039895539372,0.00021991946365231558,-0.8872238141570491,-0.8864999636245835,-0.1624585233635685,1.9243596689816622,-2.581787109375,3.49884033203125,35.62777777777777,0.014740554623801699,35.61,35.65,0.13559322033898305,-0.0013209494324048058,0,1,0
0,0.017505579466595297,0.00034171850178242314,0.017201338112229368,0.01788939163671854,0.01750557117915874,0.0003417183400071212,0.01720132996882575,0.01788938316757878,1.2044764245818987e-05,2.351203969144754e-07,1.1835430107856916e-05,1.230884731217119e-05,1.2044764245818987e-05,2.351203969144754e-07,1.1835430107856916e-05,1.230884731217119e-05,-1.7739999999999994,23.02313454634236,-46.03,41.66,0.7703601596826256,0.001352129922047619,0.768198904242362,0.7719928643996705,1.0072304061186346e-06,8.60742045134046e-08,8.644212384902383e-07,1.1454864950868314e-06,7.122549733820007e-07,3.4736804833098086e-07,3.5695753053589745e-07,1.5385545030815343e-06,-0.8874846475131398,0.00013926803215796125,-0.8877185727460135,-0.8872525951047442,-0.06690297469903458,1.7437624706180457,-2.79693603515625,3.08380126953125,35.61842105263158,0.016307298299820357,35.61,35.65,0.13559322033898305,-0.0004210526315789384,0,1,0
0,0.017496218194153264,0.0003404981893548803,0.017201338112229368,0.01788939163671854,0.017496209911148503,0.0003404980281572953,0.01720132996882575,0.01788938316757878,1.2038323195420153e-05,2.3428075744272601e-07,1.1835430107856916e-05,1.230884731217119e-05,1.2038323195420153e-05,2.3428075744272601e-07,1.1835430107856916e-05,1.230884731217119e-05,2.8157482993197283,29.524986396592293,-56.72,52.15,0.7695265448732536,0.0011458279471190439,0.7663359055599243,0.7710537211143472,6.713577739472079e-07,8.984611905844754e-08,5.564376849347307e-07,8.32925106722073e-07,4.064419335480106e-07,5.739266140317971e-08,3.3446455321425655e-07,5.114561688208456e-07,-0.8880362478737162,0.00018186507447673548,-0.8883376896122053,-0.8877480514126319,0.49765754870090534,2.1664405093875847,-2.45513916015625,3.78875732421875,35.61333333333334,0.007453559925000464,35.61,35.63,0.13605442176870747,0.000928792569659588,0,1,0
0,0.01751282180236969,0.00035170001058280426,0.016513284587740193,0.01788939163671854,0.017512813511504507,0.00035169984408208767,0.01651327677007272,0.01788938316757878,1.204974735575592e-05,2.4198820272162194e-07,1.1362012903542639e-05,1.230884731217119e-05,1.204974735575592e-05,2.4198820272162194e-07,1.1362012903542639e-05,1.230884731217119e-05,-4.71250847457627,30.953672663105316,-113.77,50.0,0.7690673849195657,0.0015725984160094794,0.7657296667520446,0.7719966039847436,0.00015264029017070225,0.0002201075714879962,5.414300576830167e-07,0.0005441955586466803,0.0003302299541901051,0.0010972382062794388,3.962860650937823e-07,0.004712078082036481,-0.8886177305937748,0.00013409876634886339,-0.8888025138852238,-0.8883724274330873,0.1555151352037601,1.915263135170333,-2.75115966796875,3.38287353515625,35.607777777777784,0.011331154474649927,35.59,35.63,0.10847457627118644,0.00033023735810106946,0,1,0
0,0.017599192191015564,0.0003397896895646119,0.017201338112229368,0.01788939163671854,0.017599183859261194,0.0003397895287024424,0.01720132996882575,0.01788938316757878,1.2109174749807317e-05,2.3379327212650004e-07,1.1835430107856916e-05,1.230884731217119e-05,1.2109174749807317e-05,2.3379327212650004e-07,1.1835430107856916e-05,1.230884731217119e-05,4.1106440677966125,17.95183782458197,-29.27,45.17,0.7689906301524512,0.0021045788282638843,0.7639538517835832,0.7714775522045318,0.00023638148504117847,0.00013702172264845838,6.911395094895783e-05,0.0005044829158806256,7.48892726354556e-06,2.871744358744512e-05,3.5124971133060345e-07,0.00012929152082686657,-0.8887818407413658,5.2050175329954214e-05,-0.8888332114393568,-0.8886711323126568,0.03029276656157917,1.5818554681712222,-2.09197998046875,3.05633544921875,35.63421052631578,0.01532654713532672,35.61,35.65,0.10847457627118644,0.0004912280701751663,0,1,0
0,0.017903433545381528,0.0003354419674195982,0.017201338112229368,0.018577445161207715,0.017903425069594175,0.00033544180861571184,0.01720132996882575,0.018577436366331808,1.231850888776943e-05,2.30801809413542e-07,1.1835430107856916e-05,1.2782264516485466e-05,1.231850888776943e-05,2.30801809413542e-07,1.1835430107856916e-05,1.2782264516485466e-05,-0.5330272108843528,13.089485291245635,-31.77,19.59,0.7699286647047882,0.0008376191687946494,0.7684657829195221,0.7718548236547156,3.497723128211835e-05,1.7541087850515603e-05,1.1690254181812501e-05,6.543940451636925e-05,1.6808700324928084e-06,4.112995250165187e-06,2.5357967035869616e-07,1.8223826656308664e-05,-0.8885679213908033,3.798925684204464e-05,-0.8886542159726352,-0.8885295660267942,0.2658072535512465,1.9064380595859818,-2.01873779296875,4.12139892578125,35.62555555555555,0.015713484026367724,35.61,35.65,0.10884353741496598,0.0004953560371517216,0,1,0
0,0.01824271641956427,0.00037075674975607615,0.01788939163671854,0.01926549868569689,0.018242707783154722,0.00037075657423357706,0.01788938316757878,0.01926548956508484,1.255195344411641e-05,2.551002468601275e-07,1.230884731217119e-05,1.3255681720799745e-05,1.255195344411641e-05,2.551002468601275e-07,1.230884731217119e-05,1.3255681720799745e-05,-0.8572542372881355,12.074516557109268,-22.28,26.93,0.768082132995741,0.0007664936430117239,0.7665901350215742,0.7691758529368158,4.703124591389257e-06,2.424775762179507e-06,2.4824574638505506e-06,1.0369325620972624e-05,1.0304370767994025e-06,7.173256606169799e-07,2.6545637728546184e-07,2.3865847074074854e-06,-0.8889939188612997,0.00031364349790165925,-0.8895813098674581,-0.8885867015633342,-0.29928855801338594,1.8154373004604811,-2.67333984375,3.13262939453125,35.635263157894734,0.008806947647725358,35.63,35.65,0.13559322033898305,0.0012280701754383522,0,1,0
0,0.01853531943521855,0.00018344272660920268,0.01788939163671854,0.01926549868569689,0.018535310660285746,0.00018344263976432121,0.01788938316757878,0.01926548956508484,1.2753279789690748e-05,1.2621829507754077e-07,1.230884731217119e-05,1.3255681720799745e-05,1.2753279789690748e-05,1.2621829507754077e-07,1.230884731217119e-05,1.3255681720799745e-05,1.3434237288135589,13.814334638281347,-25.75,23.13,0.767858086665578,0.001669893919212977,0.7638131877505152,0.7702358234956317,2.14104443999095e-06,1.3660528834616538e-07,1.906207722501551e-06,2.4270084367052078e-06,1.5937822302146147e-06,7.76516674462282e-07,7.211069535159107e-07,3.6550781954552698e-06,-0.8901641682666094,0.00025819360652521594,-0.890450747867751,-0.889658010794516,-0.3911443574806566,1.6768420436573805,-2.630615234375,2.9022216796875,35.62777777777777,0.01749779527558153,35.61,35.65,0.10847457627118644,0.0,0,1,0
0,0.016383112299323346,0.0007389440640037211,0.014449124014272667,0.018577445161207715,0.0163831045432816,0.0007389437141751392,0.01444911717381363,0.018577436366331808,1.1272447486510191e-05,5.084325862366498e-07,9.941761290599808e-06,1.2782264516485466e-05,1.1272447486510191e-05,5.084325862366498e-07,9.941761290599808e-06,1.2782264516485466e-05,-2.016677966101697,29.096538995324927,-112.37,57.8,0.768900463807291,0.000988754102959995,0.7672411993759116,0.7708123767154442,1.5579998645315236e-06,4.4739732823420185e-07,8.2981166339081e-07,2.1304563079152494e-06,5.194215471359313e-07,3.4615273705042783e-07,2.079096003650435e-07,1.5289832015567739e-06,-0.8896730262715915,0.0006568031901249022,-0.8904368948048145,-0.8883917200739402,-0.09092326199742168,2.54979046394725,-4.41131591796875,4.23736572265625,35.62263157894737,0.011626695807566475,35.61,35.65,0.13559322033898305,-0.0012982456140351783,0,1,0
0,0.01651796522396124,5.6556342644193656e-05,0.016513284587740193,0.017201338112229368,0.01651795740407784,5.6556315869467076e-05,0.01651327677007272,0.01720132996882575,1.1365233428742034e-05,3.891375404367365e-08,1.1362012903542639e-05,1.1835430107856916e-05,1.1365233428742034e-05,3.891375404367365e-08,1.1362012903542639e-05,1.1835430107856916e-05,0.27272108843537407,21.865751792225552,-43.96,35.61,0.7684801066157073,0.000990620380429746,0.7664193361570941,0.7700012423865789,6.859714025981169e-06,2.5683597976194556e-05,4.5380080052667295e-07,0.00011275139076468087,0.0005306126373642926,0.0021762959354517954,2.1583577890753534e-07,0.009503664857200604,-0.8878781471746264,0.0004102931277630202,-0.8889411078597327,-0.8874573910686252,0.8096898459914896,2.038260426294415,-1.98822021484375,4.92095947265625,35.629999999999995,0.013333333333333051,35.61,35.65,0.13605442176870747,-0.0006604747162025496,0,1,0
0,0.016522645860182254,7.970836264601065e-05,0.016513284587740193,0.017201338112229368,0.016522638038082967,7.970832491072707e-05,0.01651327677007272,0.01720132996882575,1.136845395394145e-05,5.4843567922071704e-08,1.1362012903542639e-05,1.1835430107856916e-05,1.136845395394145e-05,5.4843567922071704e-08,1.1362012903542639e-05,1.1835430107856916e-05,1.6668135593220343,21.72432210365941,-43.6,34.16,0.7688469978579051,0.0009989306621935843,0.7670847146156928,0.7705702945583834,0.006682690410707034,0.004875799978880531,0.0005215843421585934,0.016948741996123687,0.016676491641236493,0.025481366511252893,8.604884544308189e-06,0.07983253376201604,-0.8962688354123488,0.005329348486927187,-0.9066636908545935,-0.8893376212932373,-0.05689023852607237,1.407693106879057,-2.07977294921875,2.83966064453125,35.62777777777777,0.011331154474650858,35.61,35.65,0.10847457627118644,0.0018163054695562928,0,1,0
0,0.01790798767792094,0.003920017256081849,0.003440267622445873,0.026146033930588636,0.01790797919997752,0.003920015400279561,0.0034402659937651497,0.02614602155261514,1.2321642371747274e-05,2.6971791353234882e-06,2.3670860215713828e-06,1.7989853763942512e-05,1.2321642371747274e-05,2.6971791353234882e-06,2.3670860215713828e-06,1.7989853763942512e-05,-2.6063728813559335,28.09231738991171,-89.57,63.52,0.7476250084645369,0.018657805278386654,0.7209685324272881,0.7690549532096465,0.014710139242484791,0.006421055352587197,0.005077006456665503,0.023671606988506202,0.0014398217750390525,0.006104792639007732,1.2972976703995442e-07,0.027340262589479858,-0.925848501140926,0.010867839096391652,-0.9435991014509665,-0.9083778173678053,0.3515163071398108,3.751125639153703,-3.42559814453125,7.90557861328125,35.6457894736842,0.01388516416660031,35.63,35.66,0.16271186440677965,0.001614035087718977,0,1,0
0,0.01734643783508083,0.001166427318408525,0.012384963440805145,0.022017712783653588,0.017346429622984563,0.0011664267662021591,0.01238495757755454,0.02201770236009696,1.1935266389038817e-05,8.025636675965476e-07,8.521509677656977e-06,1.514935053805685e-05,1.1935266389038817e-05,8.025636675965476e-07,8.521509677656977e-06,1.514935053805685e-05,-0.22979661016949107,25.69731041705526,-51.69,41.51,0.7136102613465247,0.0032509343475121805,0.7078005156551263,0.7191734544674963,0.008101011765432438,0.002763634932607324,0.0035052273989248654,0.011941819353243203,0.009511204925471237,0.02224552762333351,8.077608692758087e-07,0.07897073146791941,-0.9566362655985956,0.005653803122591554,-0.963059383068676,-0.94541751059558,0.1705305790109661,2.1894704543201984,-2.56805419921875,5.55572509765625,35.63444444444445,0.014229164972072201,35.61,35.65,0.13559322033898305,-0.0025180598555209852,0,1,0
0,0.0167098713090228,0.005383150860043851,0.0027522140979566985,0.031650462126502035,0.01670986339828787,0.00538314831156943,0.00275221279501212,0.03165044714263938,1.1497274961918155e-05,3.703892415137318e-06,1.8936688172571063e-06,2.177719139845672e-05,1.1497274961918155e-05,3.703892415137318e-06,1.8936688172571063e-06,2.177719139845672e-05,4.424591836734686,83.68773858492806,-501.01,236.54,0.7116659201767148,0.004627073286251346,0.7073404202808101,0.7258222994016563,0.005824885455064134,0.00281305044809331,0.0022628082128603203,0.011400843414408345,0.0031419999157918017,0.013311398283035153,1.5600136654692065e-07,0.0596174520872718,-0.9554040691082067,0.006237007242834288,-0.9629853602324925,-0.9433265962320193,-0.4331471051356589,1.5804720065533107,-2.31781005859375,2.82745361328125,35.60578947368422,0.017863750261554855,35.57,35.63,0.13605442176870747,-0.0017543859649120687,0,1,0
0,0.02233849449439518,0.002520994155093862,0.012384963440805145,0.024081873357121114,0.02233848391897505,0.002520992961612706,0.01238495757755454,0.02408186195635605,1.53700653157439e-05,1.7345772712714951e-06,8.521509677656977e-06,1.656960215099968e-05,1.53700653157439e-05,1.7345772712714951e-06,8.521509677656977e-06,1.656960215099968e-05,-1.7815593220338986,124.75021284833187,-737.93,240.09,0.7497166194860424,0.009443205005677729,0.7253550795293245,0.7590147408323583,0.01621851654233575,0.004512957702739915,0.006690095315503173,0.022322259538861227,0.012532610113398797,0.037802258659543723,1.1060597070455813e-06,0.16429561442495824,-0.926262891364843,0.009228768670449746,-0.9415775252921861,-0.9117348764422799,0.07311151961972541,2.7538001455217724,-4.71649169921875,4.327392578125,35.556666666666686,0.009428090415822108,35.55,35.57,0.16271186440677965,0.0004953560371517803,0,1,0
0,0.02403974763113196,0.00016495507706153507,0.023393819832631935,0.024081873357121114,0.024039736250309883,0.0001649549989690177,0.02339380875760302,0.02408186195635605,1.6540617424204968e-05,1.1349781469093536e-07,1.6096184946685404e-05,1.656960215099968e-05,1.6540617424204968e-05,1.1349781469093536e-07,1.6096184946685404e-05,1.656960215099968e-05,0.7654576271186425,34.76980244033219,-67.99,57.5,0.7610296177714546,0.0014402970737503614,0.7588102532049428,0.7637043183451108,0.004131551567230992,0.0024953107437787085,0.0011940235817176719,0.009440267731117995,4.323691261001122e-07,1.6025555425388785e-07,2.5447947432644114e-07,8.708597280249197e-07,-0.9018226964772571,0.004348151197294071,-0.9102981395190504,-0.8961033965285321,0.4146906148192678,1.6426712007286197,-1.72271728515625,3.62396240234375,35.57222222222222,0.014740554623804083,35.55,35.59,0.13559322033898305,0.0026418988648094946,0,1,0
0,0.0241004693983235,0.00011157624721446089,0.024081873357121114,0.02476992688161029,0.02410045798875472,0.00011157619439238307,0.02408186195635605,0.02476991515510908,1.6582397210575783e-05,7.677035745636897e-08,1.656960215099968e-05,1.7043019355313955e-05,1.6582397210575783e-05,7.677035745636897e-08,1.656960215099968e-05,1.7043019355313955e-05,-3.4902711864406792,30.85991407757984,-62.69,42.4,0.7632700831978343,0.0013406364375109392,0.7604863810764685,0.7661509301560291,0.00042818333186935063,0.00028044461272522914,0.00011135843096579518,0.0010538321972798287,4.383844384394304e-07,2.2543834148900012e-07,2.2003610051016254e-07,9.52479189319979e-07,-0.8944400211330056,0.0005105488625164212,-0.8957531151729423,-0.8940391400462493,-0.2005281282713632,1.4706043829659456,-1.96380615234375,2.81829833984375,35.56684210526315,0.017487629185093417,35.55,35.59,0.10847457627118644,-0.0029473684210530923,0,1,0
0,0.024091234629563116,7.970836264601069e-05,0.024081873357121114,0.02476992688161029,0.024091223224366232,7.970832491072707e-05,0.02408186195635605,0.02476991515510908,1.657604320139856e-05,5.484356792207147e-08,1.656960215099968e-05,1.7043019355313955e-05,1.657604320139856e-05,5.484356792207147e-08,1.656960215099968e-05,1.7043019355313955e-05,3.088809523809526,29.56107035537711,-60.82,44.75,0.7641679601514475,0.0012860868970441237,0.7620453563783454,0.7662048188191339,4.24163630464107e-05,2.547787445771619e-05,1.341079570372424e-05,9.837555878848626e-05,1.6097372402815726e-06,9.022305525269107e-07,7.32001466648884e-07,4.615522296666876e-06,-0.89411858703559,0.0001926723233440778,-0.8942967555697416,-0.8936679653826674,0.32903799052273963,2.21857768224512,-2.4658203125,4.443359375,35.5411111111111,0.009938079899997088,35.53,35.55,0.13605442176870747,0.0,0,1,0
0,0.024119318446889203,0.00015608360337340045,0.024081873357121114,0.02476992688161029,0.024119307028396975,0.00015608352948078924,0.02408186195635605,0.02476991515510908,1.6595366352595053e-05,1.0739377173191979e-07,1.656960215099968e-05,1.7043019355313955e-05,1.6595366352595053e-05,1.0739377173191979e-07,1.656960215099968e-05,1.7043019355313955e-05,-0.8468813559322046,28.843550930390997,-52.19,46.08,0.7666773326614189,0.0017710215490643925,0.7635392762715808,0.7705516692244991,0.0007142543471254231,0.0003321729886099327,1.2344070346821161e-05,0.0011551842775794272,0.0006599429303111318,0.0025635450517885595,5.98845942251236e-07,0.01149420676739876,-0.8924777102516476,0.0007028277734035991,-0.8935704725753981,-0.8912928980650091,-0.0003327211138628257,1.9152155402834938,-2.19879150390625,3.51409912109375,35.52684210526316,0.023631520337518325,35.5,35.55,0.13559322033898305,-0.00305263157894711,0,1,0
0,0.024119065439525907,0.00015558564325837232,0.024081873357121114,0.02476992688161029,0.02411905402115345,0.000155585569601504,0.02408186195635605,0.02476991515510908,1.659519227015185e-05,1.0705114884412691e-07,1.656960215099968e-05,1.7043019355313955e-05,1.659519227015185e-05,1.0705114884412691e-07,1.656960215099968e-05,1.7043019355313955e-05,1.0486101694915264,27.92568248290751,-53.85,40.22,0.7680023780654109,0.0008193722803862353,0.7665902912180991,0.7694916098618267,0.00014151983235721505,8.717498505749518e-05,4.053531435442782e-05,0.0003310690922334118,4.4369222616352485e-07,1.1158609271396874e-07,2.5487512989616316e-07,5.76824623853972e-07,-0.8902080347358662,0.0005336408972721112,-0.8911611121715659,-0.8894129936881674,-0.10548306665470834,1.9713887479657883,-2.75421142578125,3.57818603515625,35.51666666666666,0.014907119849999166,35.5,35.53,0.10847457627118644,0.0004953560371517216,0,1,0
0,0.02405847017601602,0.00016863287150686745,0.023393819832631935,0.02476992688161029,0.024058458786330384,0.00016863279167322046,0.02339380875760302,0.02476991515510908,1.6553499525002632e-05,1.1602833172541252e-07,1.6096184946685404e-05,1.7043019355313955e-05,1.6553499525002632e-05,1.1602833172541252e-07,1.6096184946685404e-05,1.7043019355313955e-05,-1.3954915254237281,28.21722524189122,-58.06,44.55,0.7680034881167779,0.0013213394886065766,0.7648472818192422,0.770266426861501,1.4732014655959091e-05,9.451562701450976e-06,4.085675159336197e-06,3.5815368613069384e-05,2.999203226073661e-07,1.5661538489858207e-07,2.1986614104601686e-07,8.469049067260742e-07,-0.8886389692116798,0.0004415409895569381,-0.8893362259591122,-0.887861889930744,-0.11832140219714446,1.5152229237287933,-2.20184326171875,2.84271240234375,35.50052631578948,0.015719141603229233,35.49,35.53,0.10847457627118644,-0.0015087719298244357,0,1,0
