,net_acc_mean,net_acc_std,net_acc_min,net_acc_max,ACC_x_mean,ACC_x_std,ACC_x_min,ACC_x_max,ACC_y_mean,ACC_y_std,ACC_y_min,ACC_y_max,ACC_z_mean,ACC_z_std,ACC_z_min,ACC_z_max,BVP_mean,BVP_std,BVP_min,BVP_max,EDA_mean,EDA_std,EDA_min,EDA_max,EDA_phasic_mean,EDA_phasic_std,EDA_phasic_min,EDA_phasic_max,EDA_smna_mean,EDA_smna_std,EDA_smna_min,EDA_smna_max,EDA_tonic_mean,EDA_tonic_std,EDA_tonic_min,EDA_tonic_max,Resp_mean,Resp_std,Resp_min,Resp_max,TEMP_mean,TEMP_std,TEMP_min,TEMP_max,BVP_peak_freq,TEMP_slope,0,1,2
0,0.023229997564896392,0.01812730220668055,0.0,0.056420389008112325,0.022668310486809017,0.018824950192763097,-0.00963274478254242,0.05642036229774846,1.5597003540775786e-05,1.2952567196497109e-05,-6.627840860399872e-06,3.882021075377068e-05,1.5597003540775786e-05,1.2952567196497109e-05,-6.627840860399872e-06,3.882021075377068e-05,-2.5438305084745765,39.00468323778244,-113.18,77.58,2.955286131370768,0.05625404788421443,2.875965964976315,3.018659419839053,0.102279679607019,0.033033328634984274,0.05402254568088927,0.14993220816167108,0.052769083924689625,0.10823760760700644,1.3237054119485947e-07,0.37826630637092284,-0.25618450390794295,0.013201630848511958,-0.27863345951366314,-0.23610937248485453,-1.6678826684691475,2.5741602386635463,-4.962158203125,4.03900146484375,31.31842105263158,0.009874559494364903,31.31,31.33,0.05423728813559322,0.0004210526315789384,0,1,0
0,0.03715489032241534,0.0016545238020085381,0.03371462269996956,0.042659318518328826,0.03715487273266366,0.0016545230187290595,0.03371460673889847,0.04265929832268786,2.556452903297086e-05,1.13839985544705e-06,2.3197443011399553e-05,2.935186666748515e-05,2.556452903297086e-05,1.13839985544705e-06,2.3197443011399553e-05,2.935186666748515e-05,-0.19908163265306067,46.23670811950208,-145.76,137.48,2.8647104396733343,0.06528752919446826,2.7727263793281693,2.999071820428969,0.041118022546601185,0.019833663194613896,0.013839230316721032,0.07152008401102936,9.546892579568065e-08,1.0364646890731938e-07,2.7510240308004086e-08,4.774608463042895e-07,-0.23066598714461628,0.00262502458990144,-0.23640447680457713,-0.22771457958025243,-1.066257107642389,2.691198487503655,-4.644775390625,4.19464111328125,31.336666666666677,0.016329931618555785,31.31,31.35,0.16326530612244897,0.0028070175438598822,0,1,0
0,0.03571369712922852,0.00023095804043368499,0.035090729748947905,0.036466836797926255,0.035713680221762044,0.00023095793109425235,0.03509071313640453,0.03646681953391059,2.4572911915826127e-05,1.5891134326678196e-07,2.4144277420028106e-05,2.5091111828656657e-05,2.4572911915826127e-05,1.5891134326678196e-07,2.4144277420028106e-05,2.5091111828656657e-05,0.9428474576271192,14.529215034512482,-40.12,22.23,2.717906672851061,0.027589294263516785,2.677423439562329,2.766645356171993,0.016774888763556248,0.006289951527349047,0.010130669775546096,0.0299040647104526,0.023532004895228272,0.02541172184697098,1.1751091772149724e-06,0.08517284245998968,-0.26348353357829274,0.016735091636384713,-0.29245761979690754,-0.2383749471834096,0.6387918817789916,1.1953999941916749,-1.57623291015625,3.35540771484375,31.381578947368414,0.013480261552489917,31.35,31.39,0.13559322033898305,0.0014035087719297945,0,1,0
0,0.020079929388153454,0.014342080417287364,0.0,0.05229206786117727,0.01266579561786191,0.021177249107707432,-0.01995354276383787,0.05229204310523028,8.71474118962199e-06,1.4571073989347843e-05,-1.372909892511402e-05,3.5979707527885024e-05,8.71474118962199e-06,1.4571073989347843e-05,-1.372909892511402e-05,3.5979707527885024e-05,1.5965423728813586,46.27057878679662,-143.52,109.03,2.6202890787193374,0.04926836718572259,2.528670109862206,2.6720171430805073,0.03717526136461555,0.006097317541085268,0.027594163671879057,0.04735013306093347,0.03508015257956781,0.06528062367416922,4.7264550384618076e-08,0.21217994298430232,-0.32147585871966017,0.01441503454087617,-0.34232892120307956,-0.2958681783453657,0.06006035492577761,2.0023060351624946,-3.46832275390625,3.82843017578125,31.40111111111112,0.020245407953653566,31.37,31.43,0.08135593220338982,0.003178534571723359,0,1,0
0,0.013100911027097928,0.004521697301159941,0.0,0.019953552210186066,-0.011901460735187554,0.007101736880835898,-0.01995354276383787,0.013761063975060599,-8.188838128679388e-06,4.886372777561505e-06,-1.372909892511402e-05,9.468344086285531e-06,-8.188838128679388e-06,4.886372777561505e-06,-1.372909892511402e-05,9.468344086285531e-06,-3.2077288135593247,36.670741293913096,-83.04,80.0,2.5069289771636623,0.0512659668829531,2.445387494696049,2.5685496771854255,0.025185306026624252,0.011764308102859142,0.008649243475875274,0.04270845859222846,6.249075377070165e-07,1.7764757393672072e-06,2.110811436750737e-08,7.78610100815591e-06,-0.3521744747278625,0.0039227486511980506,-0.3567832988963532,-0.34395399361575274,1.5434291175607935,0.924094359665038,-0.73394775390625,2.95562744140625,31.42555555555556,0.008314794192830802,31.41,31.43,0.13559322033898305,-0.0003302373581011281,0,1,0
0,0.004633829858804645,0.004826278431345554,0.0,0.020641605734675238,0.0018441697980183251,0.006431511333113802,-0.00825663838503636,0.020641595962590898,1.2688869285702375e-06,4.42522194556531e-06,-5.681006451771319e-06,1.4202516129428297e-05,1.2688869285702375e-06,4.42522194556531e-06,-5.681006451771319e-06,1.4202516129428297e-05,2.376734693877549,35.21595719327328,-83.96,87.76,2.4751763201552555,0.014564863673647363,2.4494549167904527,2.503293421751198,0.017544601602523635,0.003982103014018269,0.009083228063432362,0.02343139514615932,0.015034302844846872,0.040849727412078464,2.2189309978326577e-07,0.14214370198297882,-0.35835364401064246,0.0010550154889956331,-0.3607477687684873,-0.356974331052001,-1.3236609170603197,3.7252437658143234,-6.48345947265625,3.8177490234375,31.446842105263165,0.01488645855129542,31.43,31.47,0.13605442176870747,0.0019649122807017124,0,1,0
0,0.0021156475718986842,0.0008305195135982938,0.0006880535244891746,0.005504428195913397,0.002087562766284706,0.0008987792369021337,-0.00137610639750606,0.00550442559002424,1.436354238939911e-06,6.184079289233196e-07,-9.468344086285532e-07,3.7873376345142126e-06,1.436354238939911e-06,6.184079289233196e-07,-9.468344086285532e-07,3.7873376345142126e-06,2.1798305084745766,45.74305443958458,-95.77,82.53,2.439426223890985,0.01943910619524319,2.39884403783626,2.4696682806364527,0.01381229673331514,0.003502161001854201,0.00871875398091247,0.019265311893924365,0.009082988654423325,0.02718059674282347,1.2198584731226703e-07,0.11545579070298073,-0.36838307232808604,0.004786050728293931,-0.3767242275887681,-0.3613081505580438,-0.02053142740531919,3.2542750513727654,-4.59747314453125,5.34515380859375,31.452222222222215,0.006285393610546955,31.45,31.47,0.13559322033898305,0.0006604747162022562,0,1,0
0,0.0015992595434072693,0.0012525092946259794,0.0,0.005504428195913397,0.000827523441743509,0.001855158124431667,-0.00275221279501212,0.00550442559002424,5.693801511347376e-07,1.2764474817078798e-06,-1.8936688172571063e-06,3.7873376345142126e-06,5.693801511347376e-07,1.2764474817078798e-06,-1.8936688172571063e-06,3.7873376345142126e-06,-2.3776949152542373,26.978675196616866,-69.04,42.48,2.365169479487251,0.021955371225353355,2.329305708734274,2.39574224857808,0.0033994488196144278,0.002087524478772098,0.0009275997710680304,0.007794794591244437,0.0001785701025998405,0.0007569165231091857,4.23151007081235e-08,0.003389894705447427,-0.3862798490491865,0.004749039956061105,-0.3930497902504807,-0.3777873785584315,0.7160139438827932,2.2549150020603532,-2.94952392578125,5.34210205078125,31.48052631578948,0.011909166841036798,31.47,31.51,0.13559322033898305,0.0018947368421052787,0,1,0
0,0.008631093191551276,0.0075322184910979065,0.0,0.033026569175480386,0.00726434397595036,0.008857723602874014,-0.010320797981295449,0.03302655354014544,4.998255109494948e-06,6.094585058627683e-06,-7.101258064714148e-06,2.2724025807085277e-05,4.998255109494948e-06,6.094585058627683e-06,-7.101258064714148e-06,2.2724025807085277e-05,-1.0105762711864446,60.164929916615904,-125.69,137.42,2.3610074527458003,0.032466923302998406,2.328615441510333,2.430877386311571,0.00826842076600724,0.00913991353595674,0.00038727272783698987,0.024160874091575014,0.01546190627670553,0.03624828322487935,5.262405833317274e-08,0.13012318827646185,-0.39381779242149895,0.000759260534784147,-0.39460229298381133,-0.39202896112626584,-1.3007457234864646,1.7841716712524796,-3.71246337890625,3.99932861328125,31.50111111111111,0.00993807990000062,31.49,31.51,0.10847457627118644,0.0006604747162023736,0,1,0
0,0.023702741823218892,0.013583745011351244,0.0,0.059860656630558194,0.023403170025613255,0.014093580970281988,-0.00550442559002424,0.05986062829151361,1.610262599708424e-05,9.697133468487358e-06,-3.7873376345142126e-06,4.1187296775342064e-05,1.610262599708424e-05,9.697133468487358e-06,-3.7873376345142126e-06,4.1187296775342064e-05,1.1406122448979614,101.5125783582078,-224.11,265.23,2.459058315291217,0.10481736842449287,2.3577193594529247,2.653983186248766,0.04212110162748142,0.03723112237739668,0.00889476027699267,0.10674388740598298,0.06609005778815918,0.16039118911743422,5.9165245036574277e-08,0.5802811602100213,-0.3877667589775335,0.0022890122192234666,-0.39160895276528973,-0.3843308269222749,1.480049057574781,2.202115588058944,-2.33917236328125,5.02166748046875,31.514444444444432,0.01571348402636862,31.49,31.53,0.13605442176870747,0.002311661506708073,0,1,0
0,0.03414698065792561,0.004630327906495965,0.028210194504056162,0.044035425567307176,0.034146964492168946,0.00463032571442063,0.02821018114887423,0.04403540472019392,2.3494928146543016e-05,3.1859104190755236e-06,1.941010537688534e-05,3.02987010761137e-05,2.3494928146543016e-05,3.1859104190755236e-06,1.941010537688534e-05,3.02987010761137e-05,-2.6011186440677982,28.213976445801265,-88.84,62.39,2.4959537169638115,0.06996883559452365,2.4291696307153687,2.633642746775852,0.052625203647457375,0.02283649027970164,0.028439310805763694,0.10073029626787386,0.010333769753573158,0.022856137748699133,2.4509653195892156e-08,0.07955368924442796,-0.384480615078876,0.0011406458983546535,-0.3871483556870029,-0.38341921423822906,-0.7403494406574713,2.1093541553643367,-3.80096435546875,3.31878662109375,31.526842105263153,0.014886458551295419,31.51,31.55,0.13559322033898305,0.0019649122807017124,0,1,0
0,0.03866205518558221,0.0029871408182055013,0.032338515650991204,0.05298012138566645,0.038662036882313115,0.0029871394040426502,0.03233850034139241,0.05298009630398331,2.6601538147183152e-05,2.055310822072765e-06,2.2250608602771e-05,3.64531247321993e-05,2.6601538147183152e-05,2.055310822072765e-06,2.2250608602771e-05,3.64531247321993e-05,3.7696610169491516,22.45186687085921,-44.44,56.38,2.3881448806227175,0.01714561296592911,2.3687417066026413,2.4266419524095637,0.018610586851789894,0.0038986047673598583,0.013625740847764863,0.026888163143312233,0.014120538325981659,0.031572984907050884,2.257299485108888e-07,0.13633742600920418,-0.3931824658804321,0.0035117666128141596,-0.39904829924412977,-0.3876853140572996,0.9015198416714338,2.0468327246988833,-2.46734619140625,4.53948974609375,31.55222222222223,0.006285393610546955,31.55,31.57,0.13559322033898305,0.0006604747162022562,0,1,0
0,0.04063699903756676,0.00034147289219161887,0.03990710442037213,0.04197126499383966,0.04063697979932601,0.00034147273053259275,0.03990708552767574,0.04197124512393483,2.7960403938588406e-05,2.3495140452988195e-07,2.745819785022804e-05,2.8878449463170872e-05,2.7960403938588406e-05,2.3495140452988195e-07,2.745819785022804e-05,2.8878449463170872e-05,-4.154271186440682,34.941393150764455,-100.98,68.96,2.341022753964249,0.028046052604645138,2.3036364338470436,2.3999222290575832,0.01219090441739589,0.006571182051898613,0.003646889262600437,0.023568073587071355,6.943249136383059e-08,1.9350489528556277e-08,4.9810078478484954e-08,1.2469129184733418e-07,-0.40478909490263565,0.002761571387144768,-0.4087910992044771,-0.39973164587318033,-0.7816423553391071,2.275799142413593,-4.09393310546875,3.39202880859375,31.576315789473682,0.011337189067651346,31.57,31.61,0.05423728813559322,0.0009824561403508562,0,1,0
0,0.041414269283538876,0.0028672173111866203,0.031650462126502035,0.05298012138566645,0.041414249677325196,0.0028672159537975915,0.03165044714263938,0.05298009630398331,2.8495206964440277e-05,1.9727971085261507e-06,2.177719139845672e-05,3.64531247321993e-05,2.8495206964440277e-05,1.9727971085261507e-06,2.177719139845672e-05,3.64531247321993e-05,0.6824829931972796,59.2081545130529,-95.3,230.23,2.334469635073764,0.03719957458931488,2.2967096267023055,2.4169229794876186,0.01827273746899195,0.010587286292753054,0.0022168585197841597,0.031240202162206285,0.018309015999374352,0.05828228482109455,3.384074698242756e-08,0.24500454757546647,-0.4121872140305402,0.001988792606429188,-0.41577037534888317,-0.4091337930427802,-0.5531845850033441,3.1897787488931004,-5.58929443359375,4.76226806640625,31.59,0.01763834207376356,31.57,31.61,0.08163265306122448,-0.0005366357069143332,0,1,0
0,0.041493840099296096,0.0005876389183354406,0.037842943846904606,0.044035425567307176,0.04149382045541224,0.0005876386401372635,0.03784292593141665,0.04403540472019392,2.8549955892830402e-05,4.043266460573235e-07,2.6037946237285214e-05,3.02987010761137e-05,2.8549955892830402e-05,4.043266460573235e-07,2.6037946237285214e-05,3.02987010761137e-05,2.2562033898305085,23.537520998148757,-53.2,49.42,2.2772596360307844,0.022753595009247864,2.2420481475460794,2.316476089192819,0.006053178372131422,0.003889094025965549,0.0015937128704492736,0.014567258523534913,2.6632578142819556e-07,9.498368087779472e-08,1.35891583343678e-07,4.93851643357246e-07,-0.42363350885638534,0.0051681303889121975,-0.4332355639241924,-0.4163234072596236,1.0810497085154795,1.6032544623246956,-1.898193359375,3.57666015625,31.599473684210533,0.011909166841036337,31.57,31.61,0.13559322033898305,0.000771929824561387,0,1,0
0,0.03923764693708541,0.001737610746483672,0.03371462269996956,0.044035425567307176,0.039237628361321455,0.0017376099238694343,0.03371460673889847,0.04403540472019392,2.6997575705489797e-05,1.195568066303374e-06,2.3197443011399553e-05,3.02987010761137e-05,2.6997575705489797e-05,1.195568066303374e-06,2.3197443011399553e-05,3.02987010761137e-05,-1.8287796610169476,22.440270834393733,-71.3,32.87,2.2022227093582294,0.019527937972160854,2.172152122996438,2.2361939436410165,0.0009713286938620801,0.00047198327162403895,0.00035539498137707507,0.00181487304502363,0.0012999482626482534,0.004098220040464702,1.351648509576031e-07,0.017146174590677868,-0.44707819367512613,0.0077747791986519585,-0.45986609426543523,-0.4345840279258878,-0.26159709630972694,1.5935419637156623,-2.80609130859375,2.95257568359375,31.614444444444448,0.0083147941928308,31.61,31.63,0.13559322033898305,-0.0008255933952528204,0,1,0
0,0.0355634740072703,0.0004999305139567806,0.035090729748947905,0.037842943846904606,0.035563457170921915,0.0004999302772812411,0.03509071313640453,0.03784292593141665,2.4469550465169224e-05,3.4397862643684685e-07,2.4144277420028106e-05,2.6037946237285214e-05,2.4469550465169224e-05,3.4397862643684685e-07,2.4144277420028106e-05,2.6037946237285214e-05,0.9386394557823117,12.415594710946008,-28.52,19.62,2.1416581979019855,0.015858656058186246,2.1162315959485767,2.17056100524225,0.0012078025179000076,0.0005502004223494178,0.0004214243902178607,0.0020066782441963034,1.1353975740475705e-06,1.7960639363358275e-06,3.2875509130975145e-08,6.015147359102191e-06,-0.47208463886385654,0.006034109582490642,-0.4808493510221109,-0.4613311882775557,0.06107538568766478,2.3194696567878754,-3.79180908203125,3.94134521484375,31.621111111111116,0.009938079899998852,31.61,31.63,0.13605442176870747,0.0003302373581011281,0,1,0
0,0.04173255254656781,0.0017939603107278333,0.036466836797926255,0.04678763966526387,0.04173253278967359,0.0017939594614367605,0.03646681953391059,0.04678761751520604,2.8714202678000668e-05,1.234339545874827e-06,2.5091111828656657e-05,3.219236989337081e-05,2.8714202678000668e-05,1.234339545874827e-06,2.5091111828656657e-05,3.219236989337081e-05,-0.04264406779661075,23.55690507553399,-52.31,53.02,2.1102604398882776,0.014687235587134315,2.0877660620838503,2.127625375582297,0.005062953747335634,0.0046494956367701115,0.0001559990398665044,0.011168473526971697,0.006367676685039703,0.02435753617644893,3.327234714307903e-08,0.10909461283313986,-0.48569002852545967,0.0021181175589563895,-0.48867000250557757,-0.4815510842244817,0.7751393850624709,2.6632010636402264,-3.424072265625,5.03997802734375,31.631052631578942,0.0137246366425316,31.61,31.65,0.13559322033898305,0.0019999999999999575,0,1,0
0,0.04261282841532267,0.0003264916227023812,0.04197126499383966,0.043347372042818,0.04261280824169105,0.0003264914681357406,0.04197124512393483,0.04334735152144089,2.931987901854502e-05,2.2464349901637012e-07,2.8878449463170872e-05,2.9825283871799426e-05,2.931987901854502e-05,2.2464349901637012e-07,2.8878449463170872e-05,2.9825283871799426e-05,-1.0867796610169485,15.44558613278722,-33.43,21.54,2.0897602425371473,0.01323649948984171,2.074866104373355,2.1152574602863905,0.003201421398648145,0.0018813034095184142,0.0010510383664788469,0.007184804964208339,0.0015497462579464058,0.0063881751000282915,5.4004831204212955e-08,0.02788886671075998,-0.49216162093883553,0.0023513662864402016,-0.49674596150794187,-0.4889399624511572,-0.7370397536383998,1.92174434948377,-4.04510498046875,2.93731689453125,31.654444444444444,0.008314794192832282,31.65,31.67,0.16271186440677965,0.0,0,1,0
0,0.04240188352617289,0.0003866556833644577,0.041283211469350475,0.043347372042818,0.04240186345240609,0.0003866555003151377,0.041283191925181796,0.04334735152144089,2.9174737781517264e-05,2.6603955380728475e-07,2.8405032258856593e-05,2.9825283871799426e-05,2.9174737781517264e-05,2.6603955380728475e-07,2.8405032258856593e-05,2.9825283871799426e-05,1.0936610169491527,12.54423063364889,-32.62,24.53,2.050837223854817,0.01929751991405934,2.0157881826700184,2.0762499917292945,0.0020470567307598227,0.000819490033747868,0.0007876217149585902,0.0032180375577396314,0.00017991041155713053,0.0005338258760922112,7.957554099442821e-07,0.002079099358402399,-0.5074406130970747,0.006593620546264676,-0.5190024320499138,-0.4975569863976179,1.4616433799118913,1.961740981595204,-3.66668701171875,4.23126220703125,31.664736842105263,0.008806947647728488,31.65,31.67,0.13559322033898305,0.0006666666666667708,0,1,0
0,0.04177467827255695,0.001593039942999572,0.03577878327343708,0.04747569318975305,0.04177465849571966,0.0015930391888275923,0.03577876633515756,0.04747567071395907,2.8743187404795406e-05,1.0960957096117583e-06,2.461769462434238e-05,3.2665787097685084e-05,2.8743187404795406e-05,1.0960957096117583e-06,2.461769462434238e-05,3.2665787097685084e-05,5.327925170068027,19.617808412755245,-36.62,60.66,1.9973882759574164,0.02133786717221317,1.9421758876464605,2.016002918151115,0.0063665476905823346,0.00296306799410555,0.0011376368989501544,0.010294234456988204,0.006600511874013674,0.020704629723650485,3.0117789123762506e-08,0.08629789438201912,-0.5328048112299683,0.007500228617272448,-0.5448674689323657,-0.5204386658183009,-1.632173599735383,4.152196817024097,-7.73162841796875,4.9041748046875,31.683333333333337,0.016329931618554172,31.67,31.71,0.05442176870748299,-0.0011558307533539487,0,1,0
0,0.04005587274999136,0.0030869708455591905,0.032338515650991204,0.042659318518328826,0.04005585378686557,0.0030869693841351197,0.03233850034139241,0.04265929832268786,2.7560558326836563e-05,2.12399915920684e-06,2.2250608602771e-05,2.935186666748515e-05,2.7560558326836563e-05,2.12399915920684e-06,2.2250608602771e-05,2.935186666748515e-05,-12.05071186440677,23.225599271647386,-75.9,26.58,1.920836374289802,0.016632830994393163,1.891544568978437,1.9469311249558983,0.002301911923390671,0.0014687688392916829,0.0006093878311242429,0.005495897280153362,9.976374870593256e-08,1.447081216830949e-08,6.03189846404284e-08,1.1980434244662774e-07,-0.5565453625036572,0.006005258793838036,-0.5660758527283498,-0.5461832002279546,0.581837410370706,2.71416282673734,-2.92205810546875,5.62896728515625,31.6942105263158,0.01532654713532708,31.67,31.71,0.13559322033898305,-0.0016140350877192637,0,1,0
0,0.032301070561223055,0.0005062016645072705,0.031650462126502035,0.034402676224458736,0.032301055269351474,0.0005062014248628649,0.03165044714263938,0.0344026599376515,2.2224844401175707e-05,3.482935095902354e-07,2.177719139845672e-05,2.367086021571383e-05,2.2224844401175707e-05,3.482935095902354e-07,2.177719139845672e-05,2.367086021571383e-05,7.193389830508473,21.220389236687126,-49.73,54.56,1.8655212771837617,0.016694458747887116,1.8395189236565492,1.8888017855790382,0.00022744006939012622,0.00014173808211437582,6.43764301291122e-05,0.0005377961639538269,3.7714825194514993e-07,6.467550389319703e-07,8.763482915990356e-08,2.7542236952979565e-06,-0.5764655030011414,0.006002027516234208,-0.5868838064560378,-0.5670931407043139,0.4340252001907675,1.8534398726125756,-2.63214111328125,3.79180908203125,31.710000000000004,0.014907119849998282,31.69,31.73,0.16271186440677965,0.0020227038183694103,0,1,0
0,0.033524013277644864,0.0030810384109731808,0.03096240860201286,0.041283211469350475,0.03352399740681146,0.0030810369523576286,0.03096239394388635,0.041283191925181796,2.306629365074492e-05,2.119917330545953e-06,2.1303774194142445e-05,2.8405032258856593e-05,2.306629365074492e-05,2.119917330545953e-06,2.1303774194142445e-05,2.8405032258856593e-05,1.2657288135593214,15.832895686663353,-36.67,44.04,1.811794183262994,0.01490753591435255,1.78208738429017,1.8359417238905429,0.004764074990549917,0.0036103305693753183,5.7068993907438844e-05,0.009936341620703285,0.007146192765652412,0.011056156559083558,9.454904828509747e-07,0.039359657388903485,-0.6029022984133595,0.009472600014964461,-0.61907046475744,-0.5883163945977056,-0.17932178143422278,2.1208923126251937,-3.52020263671875,3.46221923828125,31.730000000000004,0.01333333333333305,31.71,31.75,0.13559322033898305,-0.0006604747162022562,0,1,0
0,0.01450997228514585,0.011779062612431224,0.0,0.04541153261628553,0.0025930712388379535,0.018508410590276653,-0.01926548956508484,0.045411511117699976,1.7841709604769335e-06,1.2734771110474312e-05,-1.3255681720799745e-05,3.124553548474225e-05,1.7841709604769335e-06,1.2734771110474312e-05,-1.3255681720799745e-05,3.124553548474225e-05,1.471394557823134,62.97402464530909,-135.36,146.68,1.7413191554432632,0.04201640606983822,1.6884279211742448,1.8098106317240719,0.013140402357407661,0.004702403726522101,0.005869440735262578,0.02011758441638372,0.008591910026307575,0.0364511752514284,2.4029505163447595e-08,0.16324114920581484,-0.6374038244521046,0.009296759155553025,-0.6511534633511722,-0.6210720435721366,0.3088085558987403,2.275823283072866,-2.4505615234375,5.1239013671875,31.751052631578947,0.007877173445839708,31.73,31.77,0.10884353741496598,0.0009122807017543664,0,1,0
0,0.022097283599410846,0.01149836752484966,0.0027522140979566985,0.041283211469350475,0.01403722138136284,0.020578100655489404,-0.01995354276383787,0.041283191925181796,9.658355073051122e-06,1.4158827980271306e-05,-1.372909892511402e-05,2.8405032258856593e-05,9.658355073051122e-06,1.4158827980271306e-05,-1.372909892511402e-05,2.8405032258856593e-05,-3.275186440677969,91.14406004362777,-335.97,205.38,1.733615395098428,0.08266641758061365,1.6580809405534596,1.895668737300034,0.027061795143392575,0.029818339540131193,0.0019296621367017332,0.08058928911262891,0.05324274847937815,0.09832478887666087,6.998066429120264e-08,0.3465490632702771,-0.6549210405436878,0.0014452816749976555,-0.6565756658956527,-0.652193067702396,-1.3102546523825338,1.3685886125129976,-4.10919189453125,1.25885009765625,31.778888888888883,0.009938079899998852,31.77,31.79,0.13559322033898305,-0.0009907120743033846,0,1,0
0,0.039000547411754606,0.001913015486045967,0.03577878327343708,0.04541153261628553,0.03900052894823767,0.0019130145803921668,0.03577876633515756,0.045411511117699976,2.6834438695895028e-05,1.3162558013000155e-06,2.461769462434238e-05,3.124553548474225e-05,2.6834438695895028e-05,1.3162558013000155e-06,2.461769462434238e-05,3.124553548474225e-05,1.7079661016949144,39.81845804758121,-69.39,126.59,1.8512870415876217,0.01045493797239304,1.8315166845606106,1.8734208407211086,0.05747964579790432,0.011680371956534184,0.03765667603937892,0.07819755834315908,0.024472419072403582,0.03621232262710195,3.2925099158198634e-07,0.13474233384538903,-0.6398053392331731,0.007446882807987098,-0.6513181006321406,-0.6273692214940487,1.1170735134380332,2.8454095667439145,-4.17938232421875,5.98297119140625,31.804736842105267,0.014278589438158153,31.79,31.83,0.10847457627118644,0.0023859649122806507,0,1,0
0,0.04128789210557147,0.0003357031134049828,0.04059515794486131,0.042659318518328826,0.04128787255918686,0.0003357029544774676,0.04059513872642877,0.04265929832268786,2.8408252784056026e-05,2.3098149165906363e-07,2.7931615054542318e-05,2.935186666748515e-05,2.8408252784056026e-05,2.3098149165906363e-07,2.7931615054542318e-05,2.935186666748515e-05,-2.2225084745762698,33.07520444323499,-85.55,90.72,1.7985234286120944,0.016919392182501884,1.7735193960470637,1.8275408440572836,0.015607884947317019,0.009127067179177049,0.004618920621530203,0.03441031334914633,1.0490282548026987e-07,6.413301299530417e-08,6.441506927856722e-08,3.32722248530537e-07,-0.6186399259075188,0.0035315483246100717,-0.6260636113129665,-0.615153862210986,0.050269259157811046,2.7921260578574514,-5.10711669921875,4.87060546875,31.835555555555565,0.016063146994224543,31.81,31.85,0.08135593220338982,0.0020020639834883863,0,1,0
0,0.04083387039213309,0.0009883349307582623,0.03853099737139378,0.04541153261628553,0.04083385106069013,0.0009883344628638373,0.03853097913016968,0.045411511117699976,2.8095861839712533e-05,6.800266886113224e-07,2.651136344159949e-05,3.124553548474225e-05,2.8095861839712533e-05,6.800266886113224e-07,2.651136344159949e-05,3.124553548474225e-05,-0.4514625850340121,32.12345130977245,-78.52,118.7,1.7719069363456006,0.03331803735400204,1.7307747487193748,1.8560564716740802,0.009627629347566304,0.004678741723083081,0.002803307984121911,0.01572111224402877,0.008754734427327281,0.026895474759596256,2.0186802118793423e-08,0.11028720458743496,-0.621700365482246,0.004699767872126324,-0.6305739810705941,-0.6155884152208104,-0.7876639922262717,2.1144971387434426,-4.7943115234375,3.55682373046875,31.86222222222223,0.009749960430435484,31.85,31.87,0.13605442176870747,0.0002683178534571666,0,1,0
0,0.038730904814319594,0.0017047293835340297,0.03577878327343708,0.04197126499383966,0.03873088647845615,0.0017047285764863816,0.03577876633515756,0.04197124512393483,2.6648910332042244e-05,1.1729439500571584e-06,2.461769462434238e-05,2.8878449463170872e-05,2.6648910332042244e-05,1.1729439500571584e-06,2.461769462434238e-05,2.8878449463170872e-05,1.9252542372881365,14.428741767845178,-36.18,30.28,1.7004664193769263,0.018628482216067062,1.669089005566714,1.7333975266002273,0.004609669265324524,0.0010869315749523377,0.0032135489256857907,0.00758752322961081,0.0025165970067106257,0.0055513470482672165,9.61143067357284e-08,0.02235774199063676,-0.644837001967833,0.007942336285067733,-0.65774752594676,-0.6319089915188181,0.5639059667847588,2.789433667507755,-4.03594970703125,4.79278564453125,31.88473684210526,0.015683857290264235,31.87,31.91,0.16271186440677965,0.002350877192982406,0,1,0
0,0.03713148714131029,0.00012471941451822072,0.036466836797926255,0.03715489032241543,0.03713146956263811,0.00012471935547394563,0.03646681953391059,0.037154872732663616,2.554842640697393e-05,8.581355148026437e-08,2.5091111828656657e-05,2.5564529032970932e-05,2.554842640697393e-05,8.581355148026437e-08,2.5091111828656657e-05,2.5564529032970932e-05,1.0464745762711862,15.519588227714946,-33.24,35.91,1.6415810605809242,0.014470013402162729,1.6191631729474325,1.665067567912875,0.005534578372058089,0.0006248079278056913,0.004291580426266546,0.006643862865813332,0.0054502190100300645,0.007306804855751376,5.517125013093649e-06,0.021344810564417394,-0.6695910990884317,0.006183787062030537,-0.6793722121500048,-0.6590934537644434,-0.1042474030042856,1.2220995384169646,-3.27606201171875,1.97296142578125,31.903333333333332,0.016329931618554172,31.89,31.93,0.13559322033898305,0.0028070175438595895,0,1,0
0,0.038224162691554,0.001094602539748979,0.035090729748947905,0.03990710442037213,0.038224144595590696,0.0010946020215456729,0.03509071313640453,0.03990708552767574,2.6300244958594484e-05,7.531444222860325e-07,2.4144277420028106e-05,2.745819785022804e-05,2.6300244958594484e-05,7.531444222860325e-07,2.4144277420028106e-05,2.745819785022804e-05,-0.011355932203390245,15.158004168255054,-49.26,26.35,1.5881916443221897,0.01632159900498089,1.563414289775075,1.616424843425358,0.004014463238528076,0.0016950671386645121,0.0014278146402053118,0.006536262669395901,0.0007418139830588249,0.00253812915230328,3.817244350126647e-08,0.011156863906422038,-0.6893509169597838,0.005282358828215644,-0.6978198674973726,-0.6804336345105526,0.6848233509300364,1.981075747630039,-2.18963623046875,4.45404052734375,31.94578947368421,0.00815364914991018,31.93,31.95,0.13559322033898305,0.001052631578947346,0,1,0
0,0.03611578908135012,0.0006338072303375919,0.03371462269996956,0.03853099737139378,0.03611577198352635,0.0006338069302825574,0.03371460673889847,0.03853097913016968,2.4849572438700383e-05,4.360928857727516e-07,2.3197443011399553e-05,2.651136344159949e-05,2.4849572438700383e-05,4.360928857727516e-07,2.3197443011399553e-05,2.651136344159949e-05,1.170952380952381,20.616901125487814,-40.49,52.21,1.528930561812077,0.012447787670555056,1.5132472916737492,1.5567167406930278,0.0005363956925607073,0.0003330367478443113,0.0001517876376894991,0.0012628326435360831,5.7556054508494055e-08,1.8167977517973555e-08,3.668266747650084e-08,8.691891842296101e-08,-0.7060563177458713,0.004419263243099424,-0.71320128762616,-0.698714264243779,-0.13969033290967162,2.6138045068315217,-4.2022705078125,4.34417724609375,31.954444444444448,0.015713484026367387,31.93,31.97,0.13605442176870747,0.0016511867905056408,0,1,0
0,0.03514689738360002,0.0002722827111420795,0.034402676224458736,0.036466836797926255,0.035146880744465946,0.00027228258223885234,0.0344026599376515,0.03646681953391059,2.418292372242115e-05,1.8734490167417626e-07,2.367086021571383e-05,2.5091111828656657e-05,2.418292372242115e-05,1.8734490167417626e-07,2.367086021571383e-05,2.5091111828656657e-05,-4.954338983050847,17.77979255242097,-48.75,21.49,1.490939038625917,0.012461262823896141,1.4710114071230371,1.5091499291295067,5.4450100752252924e-05,3.561628264183176e-05,1.436317577789934e-05,0.00013394707178275718,6.015973886055504e-07,1.8258022041127326e-06,7.45140203153253e-08,8.291061279036322e-06,-0.7211913766144786,0.00432702494294063,-0.7282459652080747,-0.7140174305815561,-0.18102726332898766,1.799039919045225,-2.83660888671875,3.30657958984375,31.98368421052632,0.01841353229951175,31.95,32.0,0.13559322033898305,0.0028070175438596762,0,1,0
0,0.03507678271804604,9.696279749043961e-05,0.034402676224458736,0.035090729748947905,0.03507676611210541,9.696275158661643e-05,0.0344026599376515,0.03509071313640453,2.4134681125346096e-05,6.671553138906676e-08,2.367086021571383e-05,2.4144277420028106e-05,2.4134681125346096e-05,6.671553138906676e-08,2.367086021571383e-05,2.4144277420028106e-05,2.337186440677967,16.975564229133695,-40.54,23.23,1.4693536402235996,0.009090489824395148,1.4549240319652856,1.484586994179751,0.004663857100799567,0.001210158835380573,0.0006680632258379559,0.0055939162127683455,0.005785504947088335,0.013487343630868193,1.0677681128584693e-06,0.05653820867350892,-0.7354761378401182,0.0039055962282426716,-0.7417931617324159,-0.729017641666467,-0.02067298427561666,0.9073348529000308,-1.87835693359375,1.83563232421875,31.99555555555556,0.004969039950000308,31.99,32.0,0.13559322033898305,0.0004953560371517803,0,1,0
0,0.03516093929226306,0.00036544949681517917,0.034402676224458736,0.037842943846904606,0.03516092264648132,0.0003654493238052226,0.0344026599376515,0.03784292593141665,2.4192585298019393e-05,2.51448576226315e-07,2.367086021571383e-05,2.6037946237285214e-05,2.4192585298019393e-05,2.51448576226315e-07,2.367086021571383e-05,2.6037946237285214e-05,-0.10734693877551084,15.580400924278749,-37.75,20.81,1.4332807812965709,0.011363397654501279,1.41499163293867,1.4527704434284223,0.0032778028951269316,0.0011611983274023648,0.0013570912810847643,0.00501414645323984,0.0007588988431923539,0.002513504792691668,1.2970050859012483e-07,0.01076709687297478,-0.7481802715152942,0.00334825062415035,-0.7534515650165303,-0.7425075336221183,-0.08374159744300558,1.6865181697663854,-3.033447265625,2.51922607421875,32.01777777777778,0.02096440251568052,32.0,32.05,0.13605442176870747,-0.0016511867905056993,0,1,0
0,0.03368653888264354,0.0014904280562381457,0.032338515650991204,0.039219050895882956,0.03368652293486773,0.0014904273506443626,0.03233850034139241,0.03921903232892271,2.3178119860203008e-05,1.02549330611986e-06,2.2250608602771e-05,2.6984780645913764e-05,2.3178119860203008e-05,1.02549330611986e-06,2.2250608602771e-05,2.6984780645913764e-05,0.394169491525424,24.88564308527878,-81.76,43.88,1.398113273118417,0.00949778993715996,1.3823321858298208,1.4137411745398842,0.0004919977875110542,0.00032031818764359727,0.00012818353211054516,0.0012020738921242396,5.153973813370833e-08,2.224252000465777e-08,3.389594499005055e-08,1.1071857284813968e-07,-0.7582595689259288,0.002407365502165642,-0.7619409781381195,-0.7540065398682565,0.3519200213789644,1.527579158206472,-2.57415771484375,2.63824462890625,32.0278947368421,0.0164089023874939,32.0,32.05,0.08135593220338982,0.0016491228070175897,0,1,0
0,0.03973044202894915,0.003981692090514359,0.029586301553034506,0.044035425567307176,0.03973042321988771,0.003981690205514166,0.029586287546380288,0.04403540472019392,2.733664478425554e-05,2.7396146823476343e-06,2.035693978551389e-05,3.02987010761137e-05,2.733664478425554e-05,2.7396146823476343e-06,2.035693978551389e-05,3.02987010761137e-05,-1.3290847457627122,16.116697253120773,-44.73,30.14,1.3823603812449592,0.00843095544729184,1.3665968868327005,1.394359789911843,0.002535728697529124,0.002214647221445767,5.3448346543530485e-05,0.005250413855569043,0.0033893938276143257,0.013020056989747267,4.18521258760407e-08,0.056937163567962155,-0.765174374188756,0.001756433795619739,-0.7680952649170448,-0.7622937265044489,-0.3203001149574348,1.8693111953506818,-3.34930419921875,3.24249267578125,32.0588888888889,0.011967032904744261,32.03,32.07,0.13559322033898305,0.0020227038183696444,0,1,0
0,0.04154064646150625,0.0006819929514684811,0.03715489032241543,0.04541153261628553,0.04154062679546347,0.0006819926286015136,0.037154872732663616,0.045411511117699976,2.8582161144824557e-05,4.6924720963525823e-07,2.5564529032970932e-05,3.124553548474225e-05,2.8582161144824557e-05,4.6924720963525823e-07,2.5564529032970932e-05,3.124553548474225e-05,0.28057627118644,17.793572006560606,-46.1,38.01,1.3662117290410445,0.009952591944842538,1.3493237812379595,1.3822514985891692,0.001644193071468312,0.0009945718725239382,0.00045344354394490403,0.003687070000396972,6.318175491977715e-07,1.1121672395240862e-06,1.0963320717927161e-07,3.996798770056209e-06,-0.772380752123971,0.002567049307003376,-0.7768956847700075,-0.768463992139073,0.23637681681819944,2.6593297164461465,-4.17633056640625,3.96270751953125,32.074210526315795,0.020082930556146697,32.05,32.11,0.13559322033898305,0.0016140350877191765,0,1,0
0,0.04121300192603522,0.0008671186530555563,0.039219050895882956,0.043347372042818,0.0412129824151049,0.0008671182425469623,0.03921903232892271,0.04334735152144089,2.83567243808654e-05,5.966234804815424e-07,2.6984780645913764e-05,2.9825283871799426e-05,2.83567243808654e-05,5.966234804815424e-07,2.6984780645913764e-05,2.9825283871799426e-05,1.1409863945578282,51.6453822742316,-94.15,166.46,1.3341175186709782,0.007725828031495941,1.320674367290644,1.3470061446208115,0.00017918421962314764,9.63473357886383e-05,8.050856669131128e-05,0.00040029269506373666,2.054102969114414e-05,8.172059019538201e-05,1.2816737737612882e-07,0.00035743631899566976,-0.7828130723669533,0.0033551477835894864,-0.7884374324274113,-0.7774730280669703,0.14687531047660127,1.409234892154164,-2.31170654296875,2.69927978515625,32.09000000000002,1.4210854715202004e-14,32.09,32.09,0.05442176870748299,0.0,0,1,0
0,0.04179925161271728,0.0003084855680591956,0.041283211469350475,0.042659318518328826,0.0417992318242465,0.0003084854220169234,0.041283191925181796,0.04265929832268786,2.8760095162092405e-05,2.1225438138742185e-07,2.8405032258856593e-05,2.935186666748515e-05,2.8760095162092405e-05,2.1225438138742185e-07,2.8405032258856593e-05,2.935186666748515e-05,-3.8766779661016977,23.75550908768192,-62.96,37.03,1.301795912783081,0.011284784674423424,1.282930170260513,1.3193756480247634,3.154135597591619e-05,1.9580107884232264e-05,8.578102953645756e-06,7.309845126768286e-05,9.353305911583604e-08,3.4936450388275086e-08,6.246813832473642e-08,1.8574019020512096e-07,-0.7953949914298871,0.003810851717857491,-0.801630608345406,-0.7891276658057391,-0.11051547142767137,1.3857251945321567,-2.36968994140625,2.25982666015625,32.094210526315806,0.00815364914990873,32.09,32.11,0.13559322033898305,0.00035087719298238635,0,1,0
0,0.041933819904071454,0.00025101480081197715,0.04059515794486131,0.042659318518328826,0.04193380005189377,0.0002510146819773364,0.04059513872642877,0.04265929832268786,2.8852685261575634e-05,1.7271145486848043e-07,2.7931615054542318e-05,2.935186666748515e-05,2.8852685261575634e-05,1.7271145486848043e-07,2.7931615054542318e-05,2.935186666748515e-05,2.868101694915251,26.154026823957768,-56.09,41.83,1.2658493413647542,0.01011080273368051,1.2499278038544703,1.2826302753048677,3.2563004990153756e-06,1.973373721291595e-06,9.987777054480836e-07,7.58097426643805e-06,8.479518001503845e-08,3.131833015148748e-08,5.966492904817646e-08,1.6148609304927647e-07,-0.8081901925961833,0.0036088330811079984,-0.8141596962503442,-0.8023161737224376,0.5744950652233459,1.3697086544259538,-1.86309814453125,2.80303955078125,32.08111111111112,0.009938079900000616,32.07,32.09,0.13559322033898305,0.0,0,1,0
0,0.03969789895684499,0.0025301680652287206,0.034402676224458736,0.04472347909179635,0.03969788016319006,0.0025301668674044776,0.0344026599376515,0.04472345791894695,2.7314253429997345e-05,1.7408894064965843e-06,2.367086021571383e-05,3.0772118280427976e-05,2.7314253429997345e-05,1.7408894064965843e-06,2.367086021571383e-05,3.0772118280427976e-05,-0.0016271186440685328,41.67882749981416,-118.9,51.47,1.2342711737409457,0.01040562915794243,1.2196483505134441,1.2502926610567178,6.353893135751183e-07,2.2301338309419803e-07,3.9996916435307355e-07,1.2166364204432696e-06,8.71729338250258e-07,1.3277444475226147e-06,1.7292540256531836e-07,4.9272181576104885e-06,-0.8213461080211703,0.004037576414340092,-0.8281283681087759,-0.8148831747019524,-0.5927819403809048,1.6360546338423814,-3.05938720703125,2.593994140625,32.09555555555556,0.016063146994222607,32.07,32.11,0.05423728813559322,0.0013415892672859469,0,1,0
0,0.03494563002609642,0.0008387877719606036,0.033026569175480386,0.036466836797926255,0.034945613482245674,0.0008387873748643249,0.03302655354014544,0.03646681953391059,2.40444411388462e-05,5.771303363490548e-07,2.2724025807085277e-05,2.5091111828656657e-05,2.40444411388462e-05,5.771303363490548e-07,2.2724025807085277e-05,2.5091111828656657e-05,-0.16306122448979737,26.285608581884915,-54.18,52.15,1.1964851445515705,0.011299500718027537,1.1822093855052727,1.2173872841461442,1.3573580538990314e-06,1.0988526762800609e-07,1.0627077953791845e-06,1.5119476074109578e-06,7.104681744304871e-07,6.272932315740286e-07,4.178670720086065e-08,2.074142900305996e-06,-0.8368936879631818,0.004864422127903987,-0.844916067153265,-0.8289764120249834,-0.07211753194646318,2.657380196983055,-4.11224365234375,3.924560546875,32.114210526315794,0.008153649149911627,32.11,32.13,0.13605442176870747,-7.01754385965022e-05,0,1,0
0,0.03938287316361844,0.002549739795499001,0.033026569175480386,0.042659318518328826,0.039382854519101916,0.0025497385884091714,0.03302655354014544,0.04265929832268786,2.709749902789339e-05,1.7543557917389678e-06,2.2724025807085277e-05,2.935186666748515e-05,2.709749902789339e-05,1.7543557917389678e-06,2.2724025807085277e-05,2.935186666748515e-05,1.1501694915254244,27.795571290425084,-59.49,70.27,1.148929550988102,0.01678950550708274,1.1328504558409382,1.1814143947506823,5.725708951208536e-07,1.8651575241704313e-07,3.3101151892805535e-07,9.659466166938424e-07,5.028474625734187e-07,5.705689149883532e-07,2.6032463011629726e-08,1.7799572154080126e-06,-0.8530290464870114,0.004307031055565773,-0.8598738015514641,-0.8458032671829199,0.5469719593546385,2.1358497268943957,-3.26385498046875,3.436279296875,32.14777777777776,0.013146843962440976,32.13,32.16,0.13559322033898305,0.0009907120743032085,0,1,0
0,0.03946079943151431,0.0013404637409103674,0.036466836797926255,0.04197126499383966,0.03946078075010624,0.001340463106312219,0.03646681953391059,0.04197124512393483,2.715111642040259e-05,9.223099281085479e-07,2.5091111828656657e-05,2.8878449463170872e-05,2.715111642040259e-05,9.223099281085479e-07,2.5091111828656657e-05,2.8878449463170872e-05,-0.5373898305084759,19.251118980479415,-42.17,46.98,1.1235084332586245,0.007216647250655979,1.1076915261328764,1.1328963315801153,0.0015789255776069537,0.0010156920891952316,8.405053627930942e-07,0.002815982408590283,0.0016153277001190254,0.006803745708561288,1.1685449819234806e-07,0.030480702268861487,-0.8665493105329524,0.0034673375925949987,-0.8720438453910048,-0.8606097125447918,0.7227360462728268,2.2356907673097743,-2.58636474609375,4.2572021484375,32.15684210526314,0.009206766149753905,32.13,32.16,0.13559322033898305,0.0008947368421050851,0,1,0
0,0.03961690497466932,0.0003397896895646141,0.039219050895882956,0.03990710442037213,0.03961688621935816,0.0003397895287024427,0.03921903232892271,0.03990708552767574,2.7258525287864186e-05,2.3379327212650004e-07,2.6984780645913764e-05,2.745819785022804e-05,2.7258525287864186e-05,2.3379327212650004e-07,2.6984780645913764e-05,2.745819785022804e-05,0.6153220338983072,18.126161535607533,-42.17,25.79,1.0905032244242652,0.0093758726917176,1.0744135674649153,1.1043807472989433,0.0004920382949805704,0.0003019875526263473,0.00014048632774948228,0.0011441136603621243,7.513435273990735e-08,1.8661427572833187e-08,5.7486632870640264e-08,1.1259688875372986e-07,-0.8774131404465512,0.002940660122567266,-0.8822875430441285,-0.8726139485515472,-0.3229182069064148,3.0123737174915646,-4.98809814453125,4.49981689453125,32.17666666666666,0.0074535599250004645,32.16,32.18,0.16271186440677965,0.000928792569659588,0,1,0
0,0.03801612738708225,0.0006362222685421326,0.03715489032241543,0.04059515794486131,0.038016109389606145,0.000636221967343777,0.037154872732663616,0.04059513872642877,2.6157105669663602e-05,4.377545597478315e-07,2.5564529032970932e-05,2.7931615054542318e-05,2.6157105669663602e-05,4.377545597478315e-07,2.5564529032970932e-05,2.7931615054542318e-05,-2.4793197278911565,19.08340090270653,-48.64,43.6,1.0592793879217532,0.008453541868487303,1.046905534179077,1.0737186498195432,5.2499623273295964e-05,3.26198173834939e-05,1.512089557828261e-05,0.00012398189342031028,3.899010450279983e-07,5.54848938488427e-07,6.018952796804991e-08,2.262577244063692e-06,-0.8883528492781047,0.0034129836666182472,-0.8940223005970702,-0.8828875092777515,0.09923182409395355,2.2390426935087344,-3.39813232421875,3.84979248046875,32.20055555555555,0.02172357199557365,32.18,32.23,0.16326530612244897,-0.0011042311661505612,0,1,0
0,0.03775926166149384,0.00022488911590771537,0.03715489032241543,0.037842943846904606,0.03775924378562233,0.00022488900944141643,0.037154872732663616,0.03784292593141665,2.5980368469192914e-05,1.5473560231056704e-07,2.5564529032970932e-05,2.6037946237285214e-05,2.5980368469192914e-05,1.5473560231056704e-07,2.5564529032970932e-05,2.6037946237285214e-05,0.8410169491525428,21.982626583467848,-52.48,32.8,1.0348035639545485,0.007224579510547344,1.0238719220661276,1.0456795585649863,0.0012041265456585641,0.0005700705999837108,1.2388734155100588e-05,0.0017961148042756685,0.0014528904579776455,0.0034847229362169364,3.272430409186067e-07,0.013294369263360377,-0.9004368997377593,0.0033723420165936756,-0.9057121319130814,-0.894697278238168,0.038295584931858716,2.33983607620942,-3.30810546875,4.50897216796875,32.21315789473684,0.007292845505551719,32.21,32.23,0.13559322033898305,-0.0008421052631577272,0,1,0
0,0.03765103776184303,0.00031883345058404233,0.03715489032241543,0.03853099737139378,0.03765101993720662,0.000318833299642911,0.037154872732663616,0.03853097913016968,2.5905904704109127e-05,2.1937427168828907e-07,2.5564529032970932e-05,2.651136344159949e-05,2.5905904704109127e-05,2.1937427168828907e-07,2.5564529032970932e-05,2.651136344159949e-05,1.279016949152542,19.90797184801625,-52.63,31.98,1.0097326658299624,0.0071948980861033405,0.9991874438499613,1.0229815940117613,0.00064870447088344,0.00037605678841433,0.00019321841231054743,0.0014164014268115569,8.253757372178305e-08,5.253057904774624e-08,3.9020528928238735e-08,2.304557922758188e-07,-0.909494909475968,0.0017584713361384167,-0.9119632654591908,-0.9062141017667065,-0.10064078013496743,2.557689265614806,-3.9154052734375,4.27398681640625,32.23444444444445,0.012570787221096143,32.23,32.27,0.13559322033898305,0.0013209494324047473,0,1,0
0,0.03765698343488053,0.0003158591108609983,0.03715489032241543,0.03853099737139378,0.037656965607429364,0.00031585896132797027,0.037154872732663616,0.03853097913016968,2.5909995641524584e-05,2.1732776869652015e-07,2.5564529032970932e-05,2.651136344159949e-05,2.5909995641524584e-05,2.1732776869652015e-07,2.5564529032970932e-05,2.651136344159949e-05,0.022847457627118296,16.247859729524077,-39.59,20.07,0.9975974140154208,0.010551394582165237,0.985182530233498,1.0199795127185318,0.001814974974263449,0.002550668082614414,4.321368989497833e-05,0.006363614677018566,0.003638430166293257,0.015435222144285755,3.802221862272276e-08,0.0691245316289577,-0.9134758541453118,0.0007297889795783573,-0.9146199785022123,-0.9121587207659931,-0.0777204338433429,1.6802860235799595,-3.20892333984375,2.82135009765625,32.25631578947368,0.009296590385609713,32.25,32.27,0.13559322033898305,-0.0002456140350877577,0,1,0
0,0.03769316348783221,0.0002839414517029704,0.03715489032241543,0.037842943846904606,0.03769314564325269,0.0002839413172803,0.037154872732663616,0.03784292593141665,2.5934889430903852e-05,1.9536673161285977e-07,2.5564529032970932e-05,2.6037946237285214e-05,2.5934889430903852e-05,1.9536673161285977e-07,2.5564529032970932e-05,2.6037946237285214e-05,-0.7363605442176885,18.54954456101358,-41.89,24.56,0.997893564486826,0.006543888776057503,0.9882992703912237,1.0071554300918157,0.002799079888850928,0.0015534393310189707,0.0008596976210522892,0.005814036144635562,4.97523752323299e-07,4.535030147061859e-07,1.4535909489965526e-07,1.720644768707369e-06,-0.9162977893248375,0.0010898572489999264,-0.9183166184625955,-0.9147509794673293,-0.4548983893382638,1.0912420822855409,-2.26593017578125,1.72882080078125,32.25777777777777,0.009749960430437217,32.25,32.27,0.13605442176870747,0.000928792569659588,0,1,0
0,0.03759487012719076,0.00033037467634426166,0.03715489032241543,0.037842943846904606,0.037594852329145244,0.0003303745199393201,0.037154872732663616,0.03784292593141665,2.586725840171615e-05,2.2731524523074658e-07,2.5564529032970932e-05,2.6037946237285214e-05,2.586725840171615e-05,2.2731524523074658e-07,2.5564529032970932e-05,2.6037946237285214e-05,-1.2683728813559325,19.678174989358308,-50.11,23.43,0.975861715175071,0.006274326881446007,0.9665858436578851,0.9868975911584106,0.00030873542313985885,0.00020210483941163565,8.015946504615243e-05,0.0007591572200920993,1.319782220593936e-07,1.5964301016255287e-08,1.1244757348524703e-07,1.5944541963065946e-07,-0.9217738545733084,0.0020093710160301458,-0.9251861107498625,-0.9186201549205578,0.7766425461686278,1.678783629032415,-2.17437744140625,3.41644287109375,32.269999999999996,7.105427357601002e-15,32.27,32.27,0.13559322033898305,0.0,0,1,0
0,0.03736874479624315,0.0003379417999592135,0.036466836797926255,0.03853099737139378,0.03736872710524904,0.0003379416399718677,0.03646681953391059,0.03853097913016968,2.571167221809569e-05,2.325218263744886e-07,2.5091111828656657e-05,2.651136344159949e-05,2.571167221809569e-05,2.325218263744886e-07,2.5091111828656657e-05,2.651136344159949e-05,1.3222033898305094,19.407226023436074,-46.06,39.82,0.9572229075200467,0.005240176503628271,0.9478671226520512,0.9666259759487906,3.0011073655080767e-05,1.8606655840000713e-05,8.57418503841619e-06,7.07527903686124e-05,1.299420759086024e-07,2.926888243392145e-08,8.15673322795995e-08,1.5982595165050812e-07,-0.9289473851353086,0.0020257516050037495,-0.9321996638956556,-0.9255859721872809,0.16752000998681352,1.973673125417612,-2.88238525390625,3.32183837890625,32.28333333333333,0.009428090415818756,32.27,32.29,0.13559322033898305,0.0008255933952526737,0,1,0
0,0.036438752980600134,0.0001361413555710397,0.03577878327343708,0.036466836797926255,0.03643873572987985,0.00013614129111942544,0.03577876633515756,0.03646681953391059,2.5071788677460163e-05,9.367245083708847e-08,2.461769462434238e-05,2.5091111828656657e-05,2.5071788677460163e-05,9.367245083708847e-08,2.461769462434238e-05,2.5091111828656657e-05,-0.49952380952380987,18.447952832735147,-45.9,30.68,0.9389082686199087,0.005027221213538839,0.9325515196703862,0.9479815282362348,3.259081136239923e-06,1.9751432440025196e-06,9.829775238555194e-07,7.579698390196415e-06,6.913205649375475e-08,3.306574692421224e-09,6.575007665043917e-08,7.790941830847394e-08,-0.935431332722741,0.0017052729003225737,-0.9381491940581159,-0.9325601201868933,-0.3232875473741858,1.7178258758379825,-2.67486572265625,2.95257568359375,32.303333333333335,0.013333333333333837,32.29,32.33,0.13605442176870747,0.002311661506708073,0,1,0
0,0.036462156161705186,0.00024732191243451157,0.03577878327343708,0.03715489032241543,0.03646213889990548,0.00024732179534814547,0.03577876633515756,0.037154872732663616,2.5087891303457247e-05,1.7017055241063362e-07,2.461769462434238e-05,2.5564529032970932e-05,2.5087891303457247e-05,1.7017055241063362e-07,2.461769462434238e-05,2.5564529032970932e-05,0.040033898305084754,18.67934030516439,-42.11,23.77,0.9236273176631876,0.0036607539663902045,0.9193431379470662,0.9313778767473267,5.164262518126295e-06,1.5960586235421613e-05,2.836163298636351e-07,7.032149123573873e-05,8.924363996838375e-05,0.00037473186193362793,6.567577136503091e-08,0.0016790668592278524,-0.9409778692318173,0.001498503794770754,-0.9433756589340663,-0.9384487609021069,-0.3134786638965086,1.5975125363211986,-2.54669189453125,2.6458740234375,32.328421052631576,0.010393904030595542,32.31,32.34,0.13559322033898305,-1.7543859649281367e-05,0,1,0
0,0.03649473085972983,0.0001766623914228963,0.03577878327343708,0.03715489032241543,0.03649471358250869,0.0001766623077879398,0.03577876633515756,0.037154872732663616,2.511030441802076e-05,1.2155306597258414e-07,2.461769462434238e-05,2.5564529032970932e-05,2.511030441802076e-05,1.2155306597258414e-07,2.461769462434238e-05,2.5564529032970932e-05,0.14803389830508515,23.176833075048915,-63.33,47.93,0.9155418636538629,0.003510366203640713,0.9095836334491959,0.9217049485568604,0.0001016077731534276,3.947637971326806e-05,3.959453987029687e-05,0.00015585731413676269,6.560023735869969e-07,5.057074614646514e-07,1.5817591000064427e-07,2.1217935580746146e-06,-0.9456813548147528,0.0012393346586057963,-0.9476953931080206,-0.9436265047512147,-0.2816640846188528,2.8448006583994077,-4.68902587890625,3.70941162109375,32.35611111111112,0.021118419787496345,32.34,32.39,0.13559322033898305,0.003044375644994469,0,1,0
0,0.03647151743414723,5.6556342644193826e-05,0.036466836797926255,0.03715489032241543,0.03647150016791571,5.6556315869466995e-05,0.03646681953391059,0.037154872732663616,2.5094332353856083e-05,3.891375404367353e-08,2.5091111828656657e-05,2.5564529032970932e-05,2.5094332353856083e-05,3.891375404367353e-08,2.5091111828656657e-05,2.5564529032970932e-05,0.28138983050847477,18.446224943834466,-44.76,27.4,0.9025264827298524,0.003784624784063213,0.8970769703920611,0.9093383801913526,1.4410618802200281e-05,9.30046616612255e-06,3.8481952061295025e-06,3.505428330563417e-05,1.1216754054243989e-07,2.3247321520877266e-08,7.93077201098071e-08,1.523586223142531e-07,-0.9500861262589672,0.0013295630196309266,-0.9523087671284877,-0.9479300342516792,0.2292779775766226,2.4437744265392936,-3.61480712890625,3.68804931640625,32.38052631578947,0.009986139979480653,32.37,32.39,0.13559322033898305,0.0010175438596492818,0,1,0
0,0.036466836797926214,4.163336342344337e-17,0.036466836797926255,0.036466836797926255,0.03646681953391059,0.0,0.03646681953391059,0.03646681953391059,2.5091111828656663e-05,6.776263578034403e-21,2.5091111828656657e-05,2.5091111828656657e-05,2.5091111828656663e-05,6.776263578034403e-21,2.5091111828656657e-05,2.5091111828656657e-05,-0.04500000000000113,18.42486064060867,-49.04,23.57,0.888410450945501,0.00433209262901456,0.8823305173401843,0.8954749662695066,1.496256013627257e-06,8.752846915023135e-07,4.87463759634535e-07,3.408856410222309e-06,7.1456485968816e-08,4.972887196516194e-09,6.426397430743774e-08,7.876509123404165e-08,-0.9548891171528494,0.0014429079481524934,-0.9572897870265431,-0.9525682009855274,0.6702522486078533,1.9073083114835998,-2.325439453125,4.962158203125,32.40777777777776,0.0062853936105458355,32.39,32.41,0.13605442176870747,0.0006604747162021389,0,1,0
0,0.036248333313797856,0.00035803416481275694,0.03577878327343708,0.03715489032241543,0.036248316153225525,0.00035803399531334287,0.03577876633515756,0.037154872732663616,2.494076987863789e-05,2.4634643573767286e-07,2.461769462434238e-05,2.5564529032970932e-05,2.494076987863789e-05,2.4634643573767286e-07,2.461769462434238e-05,2.5564529032970932e-05,0.4997966101694923,19.470633671040417,-57.82,33.62,0.8747419437163098,0.0036724919526550945,0.8688734662911104,0.8808837583753324,2.6273878559183777e-07,7.240532272026833e-08,2.0258943153014452e-07,4.41590521065965e-07,1.3646732683149817e-07,3.886353597712679e-08,8.148862144209963e-08,2.1076471423816308e-07,-0.9602347630461873,0.0016196433376677415,-0.9628964905126564,-0.9575808877964064,-0.39092695742623684,3.359808585180057,-5.50689697265625,5.35736083984375,32.42999999999999,0.012977713690463034,32.41,32.45,0.13559322033898305,-0.0016842105263160526,0,1,0
0,0.035891118542741324,0.0002543097820368305,0.03577878327343708,0.036466836797926255,0.035891101551280544,0.0002543096616422888,0.03577876633515756,0.03646681953391059,2.4694987229128326e-05,1.7497857616677747e-07,2.461769462434238e-05,2.5091111828656657e-05,2.4694987229128326e-05,1.7497857616677747e-07,2.461769462434238e-05,2.5091111828656657e-05,-0.06447457627118744,16.297061302480618,-40.47,17.95,0.8628048107836774,0.0034462632721357993,0.8572286550864693,0.8685863121335011,2.546405415697182e-07,2.298018456594828e-08,2.1156520691708764e-07,2.8093013656413345e-07,2.0760050843241474e-07,4.202580132454551e-08,1.3974435768072267e-07,2.671583429647566e-07,-0.9656414031438258,0.0014826705695632054,-0.9680484314525695,-0.9631905166181487,0.2734646751316223,1.353047416181313,-1.97296142578125,2.99224853515625,32.46,0.013743685418724526,32.43,32.49,0.13559322033898305,0.0010526315789474083,0,1,0
0,0.035727644160130356,0.0005000874493373929,0.03371462269996956,0.03853099737139378,0.03572762724606106,0.0005000872125875585,0.03371460673889847,0.03853097913016968,2.4582508210508188e-05,3.440866062763557e-07,2.3197443011399553e-05,2.651136344159949e-05,2.4582508210508188e-05,3.440866062763557e-07,2.3197443011399553e-05,2.651136344159949e-05,1.7802033898305087,17.747904300994993,-33.63,50.94,0.8492174499729551,0.0036322018365963875,0.8438172643704084,0.8553261592005502,2.0847925535974712e-07,2.622611897379063e-08,1.6899753241654585e-07,2.541076344207407e-07,1.220080254955519e-07,1.5017544623033363e-08,1.0471829179876646e-07,1.474679157126618e-07,-0.9706276306588253,0.0013917544792374351,-0.9728856641161191,-0.9683254452604878,-0.10585092514374224,1.8836029416932427,-3.411865234375,3.045654296875,32.48555555555556,0.008314794192832283,32.47,32.49,0.16271186440677965,0.0006604747162023736,0,1,0
0,0.034959671934759434,0.00031426559833062657,0.034402676224458736,0.036466836797926255,0.03495965538426105,0.0003142654495519935,0.0344026599376515,0.03646681953391059,2.4054102714444467e-05,2.1623134782180718e-07,2.367086021571383e-05,2.5091111828656657e-05,2.4054102714444467e-05,2.1623134782180718e-07,2.367086021571383e-05,2.5091111828656657e-05,-2.4073129251700696,17.96021528979592,-47.74,21.18,0.8363349806720048,0.0035375752759384473,0.8309609627506865,0.8420897743900766,1.4608529549862573e-07,1.1379490587244112e-08,1.2708529719433217e-07,1.6569753509992248e-07,9.545529238839246e-08,9.896622722687656e-09,8.008477185942187e-08,1.0997854543713824e-07,-0.9754232875447464,0.0013722360360825514,-0.9776564772918201,-0.9731451470062701,0.5623060122940892,1.6420188946612575,-2.46734619140625,2.70843505859375,32.503684210526316,0.014220269564322352,32.49,32.53,0.13605442176870747,-0.001596491228070182,0,1,0
0,0.03493626875365436,0.0002870875008437914,0.034402676224458736,0.035090729748947905,0.03493625221423543,0.00028708736493172833,0.0344026599376515,0.03509071313640453,2.4038000088447376e-05,1.975313797628534e-07,2.367086021571383e-05,2.4144277420028106e-05,2.4038000088447376e-05,1.975313797628534e-07,2.367086021571383e-05,2.4144277420028106e-05,0.19437288135593225,14.849658337561687,-37.02,22.15,0.8238339564810455,0.0033811945396861522,0.8196263996427908,0.8305178050558039,1.192774112254003e-07,6.1247917224793876e-09,1.1247496270673903e-07,1.3401882149257427e-07,1.02535500669588e-07,2.3021631439695317e-08,7.805410895433224e-08,1.3943230925718428e-07,-0.979941846229647,0.0012416130699634783,-0.9819702127974176,-0.9778996072090052,-0.251873228219293,1.5989484555528668,-2.6641845703125,2.630615234375,32.51777777777777,0.02096440251568052,32.5,32.55,0.13559322033898305,0.0029721362229102118,0,1,0
0,0.03485363022361713,0.00038119049597157094,0.033026569175480386,0.03577878327343708,0.03485361372332066,0.0003811903155095618,0.03302655354014544,0.03577876633515756,2.3981140410433334e-05,2.622792159200303e-07,2.2724025807085277e-05,2.461769462434238e-05,2.3981140410433334e-05,2.622792159200303e-07,2.2724025807085277e-05,2.461769462434238e-05,-0.37891525423728767,14.970477620278478,-35.31,22.11,0.8137323857422359,0.0034207830096163153,0.8085740568494765,0.8193764772402438,1.6027609816870962e-07,9.343216300981752e-09,1.3828904186315063e-07,1.7002093595650585e-07,1.3467821401943942e-07,4.458734342625609e-09,1.2684297060410307e-07,1.420490115305989e-07,-0.9843544025174653,0.001309716052299727,-0.9865130597625584,-0.9822078345347862,-0.2081551563651035,2.19593421482852,-3.37677001953125,3.68804931640625,32.56052631578948,0.01503458616535572,32.55,32.59,0.13559322033898305,0.0011929824561405372,0,1,0
0,0.03493626875365436,0.0003087091610814582,0.034402676224458736,0.03577878327343708,0.03493625221423543,0.0003087090149333361,0.0344026599376515,0.03577876633515756,2.403800008844738e-05,2.1240822520877787e-07,2.367086021571383e-05,2.461769462434238e-05,2.403800008844738e-05,2.1240822520877787e-07,2.367086021571383e-05,2.461769462434238e-05,0.641627118644067,16.529030508649775,-37.55,21.42,0.8023829583893337,0.002906250072051567,0.7975396665294338,0.8077175223797379,1.9395456819956518e-07,1.7855152557724462e-08,1.704564472924694e-07,2.1586131111774734e-07,1.6447938277727188e-07,2.5662657322713074e-08,1.3155646220369657e-07,2.028132705171196e-07,-0.9888133577774519,0.0012575229089112215,-0.9908739645817328,-0.9867545496303829,0.7368854140406842,1.6931287532480797,-2.10113525390625,3.49884033203125,32.59111111111112,0.019404721329525115,32.57,32.61,0.13559322033898305,0.002992776057791412,0,1,0
0,0.03490350430010726,0.00030621522048270906,0.034402676224458736,0.035090729748947905,0.034903487776199574,0.000306215075515261,0.0344026599376515,0.03509071313640453,2.4015456412051456e-05,2.106922622146754e-07,2.367086021571383e-05,2.4144277420028106e-05,2.4015456412051456e-05,2.106922622146754e-07,2.367086021571383e-05,2.4144277420028106e-05,0.27295918367346933,14.292368679393975,-32.66,18.74,0.7911640576566362,0.0031927414990257303,0.7852298128796269,0.7970781533857831,1.823541921712066e-07,1.4729283330101243e-08,1.573061292314934e-07,2.0861698371803487e-07,1.1361184865022556e-07,1.4827589546213349e-08,8.45117950828088e-08,1.2724178009718577e-07,-0.9931650815432163,0.001247430526532128,-0.9952029689225796,-0.991116168622274,0.009033165261999845,1.9353191236720517,-3.30657958984375,2.996826171875,32.626666666666665,0.0074535599250004645,32.61,32.63,0.13605442176870747,0.000928792569659588,0,1,0
0,0.03476994803820628,0.0003524366844789944,0.034402676224458736,0.03577878327343708,0.0347699315775264,0.0003524365176295257,0.0344026599376515,0.03577876633515756,2.392356264234106e-05,2.4249507331237297e-07,2.367086021571383e-05,2.461769462434238e-05,2.392356264234106e-05,2.4249507331237297e-07,2.367086021571383e-05,2.461769462434238e-05,-3.0963050847457616,20.363128582554182,-41.73,44.45,0.7784812792550584,0.00388184314729307,0.7743319126219801,0.7842475298460325,1.2498652672661174e-07,1.3197063790106499e-08,1.124568647713196e-07,1.5311181394090946e-07,8.416783672922213e-08,1.1643965698516517e-08,6.770361698667797e-08,1.0100849819632877e-07,-0.9976026646946378,0.0013226663778023405,-0.9997932745969065,-0.9954413392978139,-0.14013711631150164,1.5982645546568577,-2.73590087890625,2.94952392578125,32.64789473684209,0.011506953215300576,32.63,32.66,0.13559322033898305,0.0013508771929821872,0,1,0
0,0.03357888424956014,0.0016440563990476793,0.028898248028545334,0.04059515794486131,0.03357886835274991,0.0016440556207236513,0.02889823434762726,0.04059513872642877,2.3104047780616504e-05,1.1311977287668078e-06,1.9883522581199616e-05,2.7931615054542318e-05,2.3104047780616504e-05,1.1311977287668078e-06,1.9883522581199616e-05,2.7931615054542318e-05,3.8841355932203387,13.955185507827752,-32.24,27.99,0.7667387894127221,0.003458141309546338,0.7602293733837526,0.7722961666981453,1.3125868776277887e-07,8.791308463787548e-09,1.1785580462326999e-07,1.4731894088826592e-07,1.1823464875681557e-07,1.3361548035809956e-08,9.82068992454404e-08,1.4773895720412525e-07,-1.0022411661076616,0.0013653059413322054,-1.0045201310588057,-1.0000425548859337,0.09714588777197099,1.5377555513256964,-2.923583984375,2.67181396484375,32.66888888888888,0.009938079900000616,32.66,32.68,0.16271186440677965,0.0016511867905059342,0,1,0
0,0.03190615769303517,0.0003602008058583074,0.03096240860201286,0.033026569175480386,0.031906142588121925,0.00036020063533317217,0.03096239394388635,0.03302655354014544,2.1953123467627582e-05,2.4783719933386405e-07,2.1303774194142445e-05,2.2724025807085277e-05,2.1953123467627582e-05,2.4783719933386405e-07,2.1303774194142445e-05,2.2724025807085277e-05,-1.9373898305084756,16.232381477813185,-39.76,18.9,0.7542854935793152,0.0040395440560074495,0.7481734400514615,0.761049430429345,1.8805866109992097e-07,2.4833915008374832e-08,1.5087770203645973e-07,2.3576678807543363e-07,1.8610496207934624e-07,2.9569480831130042e-08,1.499474794062857e-07,2.3183912349768076e-07,-1.007410401470623,0.0016016564924479493,-1.0100526379664483,-1.0048011051482166,-0.07050753231379885,1.3672932235764013,-2.31170654296875,2.35748291015625,32.71526315789473,0.023701747893047492,32.68,32.75,0.13559322033898305,0.002842105263157728,0,1,0
0,0.03191257775487885,0.0003792759704703151,0.03096240860201286,0.033026569175480386,0.031912562646926254,0.00037927579091467483,0.03096239394388635,0.03302655354014544,2.1957540809624083e-05,2.609619211484289e-07,2.1303774194142445e-05,2.2724025807085277e-05,2.1957540809624083e-05,2.609619211484289e-07,2.1303774194142445e-05,2.2724025807085277e-05,-0.3058503401360557,18.745377438113373,-46.83,36.92,0.7410468695492277,0.004035670832677828,0.7346472172294674,0.7475640457504032,2.4056583647338646e-07,1.3296227244035913e-08,2.1301314275742892e-07,2.545555909394756e-07,1.6145237050928955e-07,2.7882256371980924e-08,1.1264324557151563e-07,2.1215351384867502e-07,-1.012762769081181,0.0014498629855625126,-1.0150859995152732,-1.010345883885172,0.009611522589368796,1.3821841825035617,-2.21710205078125,2.51617431640625,32.75666666666666,0.013333333333335418,32.73,32.77,0.13605442176870747,0.0,0,1,0
0,0.031772158668248424,0.00027452639707531743,0.03096240860201286,0.032338515650991204,0.031772143626772546,0.00027452626710989234,0.03096239394388635,0.03233850034139241,2.1860925053641554e-05,1.888886762266909e-07,2.1303774194142445e-05,2.2250608602771e-05,2.1860925053641554e-05,1.888886762266909e-07,2.1303774194142445e-05,2.2250608602771e-05,0.6380677966101684,21.162605603460246,-45.82,45.88,0.7275776980836982,0.004868210514962278,0.717941572297827,0.7354178584096396,1.5170361033135882e-07,3.2544635034196524e-08,1.0615204493840085e-07,2.079464689438784e-07,7.331379908116675e-08,1.1816769539850645e-08,6.063356003305427e-08,1.0277642516531672e-07,-1.0174783409978907,0.001267135707670605,-1.0195242260792643,-1.0153420589844122,-0.3051648956374554,1.8446244532191676,-3.0609130859375,2.899169921875,32.77631578947368,0.025175285774951428,32.73,32.81,0.13559322033898305,0.003719298245614068,0,1,0
0,0.031803879466421915,0.0002863956376440381,0.031650462126502035,0.032338515650991204,0.031803864409928884,0.00028639550205951413,0.03165044714263938,0.03233850034139241,2.1882750639959243e-05,1.970553413005298e-07,2.177719139845672e-05,2.2250608602771e-05,2.1882750639959243e-05,1.970553413005298e-07,2.177719139845672e-05,2.2250608602771e-05,-0.3438644067796619,14.89182799385501,-34.94,25.12,0.7160237780721546,0.0028570695141044832,0.711816142144879,0.7208989679014138,1.0398183736725624e-07,4.4327545815140265e-09,9.97880850243039e-08,1.1408749597942788e-07,8.795450175552393e-08,1.0217830373385032e-08,7.520047193533258e-08,1.009617143782182e-07,-1.0217176484228945,0.0012325448852059419,-1.023800072902479,-1.0197469839130493,0.6016654625021816,1.5225957652692028,-2.20184326171875,2.77557373046875,32.80555555555556,0.00831479419283228,32.79,32.81,0.13559322033898305,-0.0008255933952529671,0,1,0
0,0.03218405465569768,0.00035708070323503473,0.031650462126502035,0.033026569175480386,0.032184039419223424,0.0003570805341870082,0.03165044714263938,0.03302655354014544,2.214433127119028e-05,2.456904037598132e-07,2.177719139845672e-05,2.2724025807085277e-05,2.214433127119028e-05,2.456904037598132e-07,2.177719139845672e-05,2.2724025807085277e-05,-0.09843537414965924,21.13460072705614,-41.54,63.23,0.7041111399263587,0.0032449685095330017,0.7002186399381428,0.7095277208100811,1.8247835453728466e-05,5.910034827418333e-05,1.1572333528040035e-07,0.00025231623604896243,0.00033779661322334956,0.0013614161507589837,1.0422252712452176e-07,0.005950547102295266,-1.0265865032524966,0.0015941548033740478,-1.0292630100671978,-1.0240672060183664,-0.1928272673273205,1.351685277840891,-2.51617431640625,2.09197998046875,32.82333333333334,0.009428090415818756,32.81,32.83,0.13605442176870747,0.00016511867905053473,0,1,0
0,0.032338515650991155,4.85722573273506e-17,0.032338515650991204,0.032338515650991204,0.0323385003413925,9.020562075079397e-17,0.03233850034139241,0.03233850034139241,2.2250608602771056e-05,5.759824041329242e-20,2.2250608602771e-05,2.2250608602771e-05,2.2250608602771056e-05,5.759824041329242e-20,2.2250608602771e-05,2.2250608602771e-05,0.8186101694915262,20.922687299462343,-53.4,36.76,0.6932985248174299,0.0039759103600615015,0.6859942171479848,0.6994807957685144,0.0006473233397034595,0.0001608808566306354,0.0004060832882448455,0.0009053819062626636,0.0003177467788141101,0.0013212542527906229,1.4743011746056606e-07,0.005923175711933683,-1.032368705517776,0.0016344045306127754,-1.03491991440524,-1.029588106516033,-0.037599379016507055,1.2379145931194784,-1.97906494140625,2.4261474609375,32.84473684210528,0.010939268258327575,32.84,32.87,0.13559322033898305,0.0012631578947365908,0,1,0
0,0.03220369435227371,0.00037224030628777826,0.030274355077523685,0.033026569175480386,0.03220367910650166,0.00037224013006293945,0.03027434074513332,0.03302655354014544,2.215784442084458e-05,2.5612101219405e-07,2.083035698982817e-05,2.2724025807085277e-05,2.215784442084458e-05,2.5612101219405e-07,2.083035698982817e-05,2.2724025807085277e-05,-0.9835593220338976,20.967333314331547,-45.25,25.71,0.6795590086132086,0.0035924420449278396,0.6742857660918387,0.6851080556703637,0.00015528012038648452,9.531850836392597e-05,4.434946715677757e-05,0.0003611903234467255,6.469850503700406e-08,2.4839802822203684e-08,4.094535259967485e-08,1.2768823325678275e-07,-1.0366496646178696,0.0007727621449460042,-1.0376685361100633,-1.0351595517918926,0.4646431463977176,1.347366554981398,-2.07366943359375,2.71148681640625,32.88444444444443,0.016063146994223287,32.87,32.91,0.13559322033898305,0.002002063983488093,0,1,0
0,0.031613017036733936,0.0006409566920537876,0.028210194504056162,0.03371462269996956,0.03161300207059839,0.0006409563886140782,0.02821018114887423,0.03371460673889847,2.175142719686137e-05,4.410120934471069e-07,1.941010537688534e-05,2.3197443011399553e-05,2.175142719686137e-05,4.410120934471069e-07,1.941010537688534e-05,2.3197443011399553e-05,1.9562711864406788,27.509980506206862,-74.17,61.6,0.6727677859498453,0.006150036612456016,0.663656190946242,0.6859205866800703,0.00038151332308109887,0.0006073190420729895,8.797973512606292e-06,0.0016345614568813952,0.0009352265445172838,0.003966364949443369,4.1226502460445756e-08,0.01776308762471175,-1.038006405040157,0.00012086479627999745,-1.0381481528763594,-1.0377312876128064,-0.41902934942884423,2.552392987777578,-4.498291015625,4.08477783203125,32.911052631578926,0.012093816097974733,32.89,32.93,0.13559322033898305,0.0018947368421052603,0,1,0
0,0.031692587852491176,0.00018344272660920092,0.03096240860201286,0.032338515650991204,0.03169257284868545,0.00018344263976432086,0.03096239394388635,0.03233850034139241,2.180617612525147e-05,1.262182950775416e-07,2.1303774194142445e-05,2.2250608602771e-05,2.180617612525147e-05,1.262182950775416e-07,2.1303774194142445e-05,2.2250608602771e-05,-0.07404761904761922,17.52289057664282,-45.82,39.1,0.6763884650142418,0.002717055899810111,0.6707039125935299,0.6798808087801825,0.0008089736797844203,0.0004111765226128726,0.00028325259104600197,0.0015821909539501812,0.0012239020467973251,0.005044502497593543,1.94542327844327e-07,0.022022918514524446,-1.0384782593301718,0.0002716274852405308,-1.0390418322322417,-1.038161217668675,0.5299731460457701,1.2696965750634621,-3.65447998046875,2.34527587890625,32.9388888888889,0.023306863292670513,32.91,32.97,0.13605442176870747,0.0034674922600619338,0,1,0
0,0.03264070132053034,0.0016259244739677762,0.028898248028545334,0.039219050895882956,0.03264068586787173,0.001625923704227705,0.02889823434762726,0.03921903232892271,2.2458528320882e-05,1.118722005622248e-06,1.9883522581199616e-05,2.6984780645913764e-05,2.2458528320882e-05,1.118722005622248e-06,1.9883522581199616e-05,2.6984780645913764e-05,-0.8839999999999997,31.134006427111018,-115.16,59.61,0.6756632938931556,0.004876611151345882,0.6658630949693101,0.6806460629004352,0.0018642994436763912,0.0007254188610517766,0.0007461720063668729,0.0029125761463833716,0.0004374180189323589,0.0018482803548327902,8.03637674462454e-08,0.008278988718058648,-1.040380027076927,0.0008230634121104488,-1.0418325984280907,-1.0391459006024333,-0.258243645982766,1.6716341879524494,-3.21502685546875,2.435302734375,32.96263157894739,0.017424153007628177,32.93,32.99,0.13559322033898305,0.001859649122807034,0,1,0
0,0.03441671813312175,9.728519695853672e-05,0.034402676224458736,0.035090729748947905,0.034416701839666865,9.728515090208448e-05,0.0344026599376515,0.03509071313640453,2.3680521791312053e-05,6.693735926935023e-08,2.367086021571383e-05,2.4144277420028106e-05,2.3680521791312053e-05,6.693735926935023e-08,2.367086021571383e-05,2.4144277420028106e-05,-0.5263389830508474,20.71899585667267,-54.66,31.14,0.6603266887750286,0.003122784231445208,0.6555741207508006,0.6645295802483325,0.000280565150702276,0.00017407037933107574,7.947228664231787e-05,0.0006601090181716414,8.854411605321228e-08,3.061092131892235e-09,8.392875894703417e-08,9.406336964890016e-08,-1.043717870426199,0.0010635886752530881,-1.0454932728764732,-1.042018048222924,-0.05340528828440118,2.223588909574396,-3.39813232421875,3.668212890625,32.98111111111112,0.009938079900000616,32.97,32.99,0.13559322033898305,0.0006604747162023736,0,1,0
0,0.034449166327464725,0.0002486242723002115,0.03371462269996956,0.03577878327343708,0.034449150018648324,0.000248624154597288,0.03371460673889847,0.03577876633515756,2.3702847864653955e-05,1.7106664485793126e-07,2.3197443011399553e-05,2.461769462434238e-05,2.3702847864653955e-05,1.7106664485793126e-07,2.3197443011399553e-05,2.461769462434238e-05,-0.43708474576271256,20.700682187471905,-46.49,31.56,0.6498169876783284,0.003338564289204907,0.6440045582342934,0.65591797703876,2.9709256309155543e-05,1.846144516798629e-05,8.45495509077644e-06,7.013852801749092e-05,8.833098256923471e-08,4.648127640520722e-09,8.057287375766746e-08,9.586852430746445e-08,-1.0475676771001134,0.0011374288502774355,-1.049431791710092,-1.0457092435451463,-0.10388711946483284,2.1740054981001413,-3.29437255859375,3.47900390625,33.00666666666666,0.017950549357114445,32.99,33.05,0.13559322033898305,0.0030340557275540525,0,1,0
0,0.034318424772480455,0.0006899137121029643,0.029586301553034506,0.037842943846904606,0.03431840852555932,0.0006899133854861753,0.029586287546380288,0.03784292593141665,2.361289076212432e-05,4.7469711174629557e-07,2.035693978551389e-05,2.6037946237285214e-05,2.361289076212432e-05,4.7469711174629557e-07,2.035693978551389e-05,2.6037946237285214e-05,1.0997278911564625,17.462474380527585,-37.64,23.95,0.6392114199507192,0.0031461139994469352,0.6330756377059837,0.6443011545980779,3.1202571489719872e-06,1.9421869644480994e-06,9.784085139352162e-07,7.473704626895831e-06,1.9227130944509567e-07,1.7983596935493438e-07,8.96527282642258e-08,8.642735082497912e-07,-1.0515673012568951,0.001151605861546832,-1.0534289066739855,-1.0496500180917838,-0.08933843568313954,2.4176216746330135,-4.02069091796875,3.39202880859375,33.03105263157892,0.01832304756371385,33.0,33.05,0.13605442176870747,0.0011578947368420993,0,1,0
0,0.03460394358196234,0.002637745123258512,0.033026569175480386,0.04472347909179635,0.0346039271998718,0.002637743874505475,0.03302655354014544,0.04472345791894695,2.380934279928874e-05,1.8149081103447036e-06,2.2724025807085277e-05,3.0772118280427976e-05,2.380934279928874e-05,1.8149081103447036e-06,2.2724025807085277e-05,3.0772118280427976e-05,-2.0618305084745763,24.902185065893683,-58.67,46.27,0.6324230957245072,0.0038725303856423088,0.6246197054996541,0.6372347433502142,0.0001783527261673243,8.079442148961247e-05,9.585275195438155e-07,0.0002808937542582413,0.00016983468850886082,0.0006982568852520859,8.718928717335248e-08,0.003048819515061081,-1.055252316983512,0.0009826048628411243,-1.0568531038686517,-1.0536265577841541,0.7291442890031123,2.3942598527882697,-4.28619384765625,4.07867431640625,33.0588888888889,0.013698697784377645,33.05,33.09,0.13559322033898305,0.0021465428276577145,0,1,0
0,0.035736942180731576,0.0014245936100818063,0.032338515650991204,0.042659318518328826,0.035736925262260376,0.0014245929356551607,0.03233850034139241,0.04265929832268786,2.4588905740296257e-05,9.801957262985017e-07,2.2250608602771e-05,2.935186666748515e-05,2.4588905740296257e-05,9.801957262985017e-07,2.2250608602771e-05,2.935186666748515e-05,2.8108474576271196,28.522312519941398,-91.78,49.3,0.6213474621158259,0.002429697526015686,0.6155166477166952,0.6243568398536654,3.6966896395664535e-05,2.391145674731001e-05,9.757577763999046e-06,8.986812914052897e-05,1.2003441291820652e-07,1.7033803098227637e-08,9.69685147017812e-08,1.4727762050594038e-07,-1.0587812558930043,0.001077438631214824,-1.0605894692435864,-1.0570408395011162,-0.6413859705771169,2.138611129612722,-4.77447509765625,2.63519287109375,33.07842105263158,0.011815760168760661,33.07,33.11,0.16271186440677965,-0.00017543859649136768,0,1,0
0,0.035114132930052916,0.0001247194145182206,0.035090729748947905,0.03577878327343708,0.035114116306430083,0.0001247193554739459,0.03509071313640453,0.03577876633515756,2.4160380046025228e-05,8.581355148026432e-08,2.4144277420028106e-05,2.461769462434238e-05,2.4160380046025228e-05,8.581355148026432e-08,2.4144277420028106e-05,2.461769462434238e-05,-0.5092542372881349,18.099828806750313,-41.64,22.55,0.6109303996089404,0.003471391187045277,0.6047910665942967,0.6167691535949713,3.7151457536641912e-06,2.2427288545302384e-06,1.1339385406796257e-06,8.625572766740603e-06,9.19120583030179e-08,4.1193855525681e-09,8.539158910189377e-08,9.819826917890494e-08,-1.0627255117723342,0.0011988642785764165,-1.064722951296218,-1.0608024625665444,0.526676775689381,2.4171505008957848,-3.77044677734375,3.91082763671875,33.12555555555556,0.014229164972073188,33.11,33.15,0.13559322033898305,0.001857585139318846,0,1,0
0,0.035146897383600016,0.0002199401027487121,0.034402676224458736,0.03577878327343708,0.035146880744465946,0.0002199399986253575,0.0344026599376515,0.03577876633515756,2.418292372242113e-05,1.5133041958791416e-07,2.367086021571383e-05,2.461769462434238e-05,2.418292372242113e-05,1.5133041958791416e-07,2.367086021571383e-05,2.461769462434238e-05,-0.511734693877551,18.690440444185352,-42.3,25.78,0.5996593826522312,0.003340530205093012,0.5943810449887057,0.6040096187041033,5.09072218086193e-07,2.291043912584605e-07,2.533737137031173e-07,1.0149867790309462e-06,1.1554831981066977e-07,1.2733328186697502e-08,9.959217230141736e-08,1.3552457544878994e-07,-1.0670352085099777,0.001261588545864256,-1.0690918033133867,-1.064965272804529,0.09754739387455412,2.0943359448499685,-3.41033935546875,3.27301025390625,33.1461111111111,0.008906233078821227,33.13,33.16,0.13605442176870747,0.0005056759545922627,0,1,0
0,0.035253445109468914,0.00029237063591536303,0.035090729748947905,0.03577878327343708,0.03525342841989339,0.00029237049750217224,0.03509071313640453,0.03577876633515756,2.4256234191318654e-05,2.0116645602738415e-07,2.4144277420028106e-05,2.461769462434238e-05,2.4256234191318654e-05,2.0116645602738415e-07,2.4144277420028106e-05,2.461769462434238e-05,-1.1734576271186443,20.81808326327569,-45.48,25.93,0.5892891078439894,0.002827062330654376,0.5851060029590629,0.5944701410634714,2.121346794374521e-07,1.1094083266033165e-08,1.9895924030938556e-07,2.43135455766799e-07,1.4748663761217984e-07,1.393875271483595e-08,1.1740355655615814e-07,1.658385350981871e-07,-1.0713642469844131,0.0012116013706511522,-1.0733094561245178,-1.069328827698829,-0.12730581884644462,1.3705995874327987,-2.82440185546875,2.37579345703125,33.15789473684209,0.004076824574954364,33.15,33.16,0.13559322033898305,-0.0005263157894735795,0,1,0
0,0.035306039015114504,0.00035714205203769394,0.034402676224458736,0.036466836797926255,0.035306022300640144,0.00035714188296062204,0.0344026599376515,0.03646681953391059,2.4292421579201284e-05,2.45732614979736e-07,2.367086021571383e-05,2.5091111828656657e-05,2.4292421579201284e-05,2.45732614979736e-07,2.367086021571383e-05,2.5091111828656657e-05,0.3861694915254237,18.362712861456224,-41.7,24.55,0.5790799804173974,0.0034337752595412657,0.5736447099839626,0.5850156899796763,1.6040419053382847e-07,1.9054413995185226e-08,1.4043993594294448e-07,1.9573701218286588e-07,1.0171265166998019e-07,1.131421281096327e-08,8.856801493787945e-08,1.2495605137347546e-07,-1.0751634605949127,0.00098472636185158,-1.0767407812625769,-1.0735139352858114,-0.20862594732319462,2.3349761548319337,-3.8055419921875,3.20892333984375,33.19222222222223,0.018121673811444135,33.18,33.23,0.13559322033898305,0.002889576883384886,0,1,0
0,0.03550449166570143,0.00034624984795885035,0.034402676224458736,0.03577878327343708,0.03550447485727629,0.00034624968403833045,0.0344026599376515,0.03577876633515756,2.4428967495595463e-05,2.3823820266979902e-07,2.367086021571383e-05,2.461769462434238e-05,2.4428967495595463e-05,2.3823820266979902e-07,2.367086021571383e-05,2.461769462434238e-05,1.3457627118644069,19.899296862068045,-45.23,34.36,0.5711579299060364,0.0017124088269152514,0.567339433187404,0.5736670757603994,1.666473723529686e-07,1.240680281918104e-08,1.4237528535276585e-07,1.7967417660675715e-07,1.3340050409502253e-07,2.493172798129961e-08,9.355383310659229e-08,1.7105032984890962e-07,-1.0784138445883074,0.0008904167557617507,-1.0798450397506025,-1.0769165909338883,0.07415941867875697,2.594572107975019,-4.32586669921875,3.289794921875,33.21736842105263,0.00964752777885248,33.21,33.23,0.13559322033898305,0.0006315789473682954,0,1,0
0,0.03501583956941162,0.0007661387986348678,0.031650462126502035,0.03715489032241543,0.03501582299232255,0.0007661384359318389,0.03165044714263938,0.037154872732663616,2.4092749016837417e-05,5.271440015305439e-07,2.177719139845672e-05,2.5564529032970932e-05,2.4092749016837417e-05,5.271440015305439e-07,2.177719139845672e-05,2.5564529032970932e-05,-1.56891156462585,17.00111387424272,-39.13,25.52,0.5630039638925284,0.0021259175288046894,0.5593532799795088,0.5658441826967008,1.3906691027754573e-07,1.232793108381785e-08,1.2044166843490976e-07,1.6198535357649736e-07,8.908510577013992e-08,6.612030120805681e-09,7.986772276238967e-08,9.732391548917629e-08,-1.0812509652003772,0.0007585876305300359,-1.0824856869255055,-1.07999672643101,0.19721416918278925,2.020779397280543,-3.55682373046875,3.44390869140625,33.23777777777778,0.009749960430437217,33.23,33.25,0.13605442176870747,0.0015892672858619616,0,1,0
0,0.034524372766205076,0.00034706215318476856,0.03371462269996956,0.03577878327343708,0.03452435642178468,0.0003470619888796928,0.03371460673889847,0.03577876633515756,2.3754593870898658e-05,2.3879711161426104e-07,2.3197443011399553e-05,2.461769462434238e-05,2.3754593870898658e-05,2.3879711161426104e-07,2.3197443011399553e-05,2.461769462434238e-05,1.891322033898306,20.479884664698314,-43.1,43.6,0.5556914932337378,0.002239197857517304,0.551278838850696,0.5585999636222772,1.2476796625660866e-07,9.2194502735198e-09,1.1669470446372137e-07,1.4731089888340305e-07,1.1600546071493146e-07,2.5657915272204344e-08,8.700367566225235e-08,1.798281557425829e-07,-1.0839392525327824,0.0008027698122235993,-1.0852696479996804,-1.0826296241912883,1.1651973866351486,2.0565298853572873,-2.05535888671875,4.449462890625,33.25842105263157,0.009874559494366657,33.25,33.27,0.16271186440677965,-0.0001403508771930044,0,1,0
0,0.03451425247167316,0.0002659298912272808,0.03371462269996956,0.035090729748947905,0.03451423613204388,0.00026592976533158677,0.03371460673889847,0.03509071313640453,2.3747630573170175e-05,1.8297382568004094e-07,2.3197443011399553e-05,2.4144277420028106e-05,2.3747630573170175e-05,1.8297382568004094e-07,2.3197443011399553e-05,2.4144277420028106e-05,-0.5917966101694933,18.83133234237931,-46.65,28.34,0.5501928517999848,0.0014477849177674989,0.5479334861097477,0.5525588096257382,2.384887913256992e-07,5.117450278501947e-08,1.534741517398072e-07,3.01240606234262e-07,2.4016856714077947e-07,4.001527853087296e-08,1.5154380407522523e-07,2.8532859715704067e-07,-1.0867074805253265,0.000785880854285019,-1.087992825509484,-1.0854202742400383,-0.8479564263145265,2.012025935935345,-3.826904296875,2.66571044921875,33.26333333333333,0.009428090415822106,33.25,33.27,0.13559322033898305,0.0014860681114553407,0,1,0
0,0.034515011493763056,0.00025430978203682807,0.034402676224458736,0.035090729748947905,0.03451499515377442,0.00025430966164228895,0.0344026599376515,0.03509071313640453,2.3748152820499806e-05,1.7497857616677747e-07,2.367086021571383e-05,2.4144277420028106e-05,2.3748152820499806e-05,1.7497857616677747e-07,2.367086021571383e-05,2.4144277420028106e-05,0.05901360544217656,18.14451346150998,-45.99,26.41,0.5428830244530467,0.0028428684186044186,0.5388178354648926,0.548113719804579,2.230041294353762e-07,3.994666872441785e-08,1.685187007001888e-07,2.935167577461343e-07,1.1229935467527982e-07,9.898495094387231e-09,9.199300420375649e-08,1.364155643652332e-07,-1.0893872940730591,0.0007505950405452609,-1.0905997692239133,-1.0881427127038052,0.0930331776810639,1.9730913155243313,-3.09295654296875,3.3905029296875,33.287777777777784,0.011331154474649925,33.27,33.31,0.13605442176870747,0.001816305469556117,0,1,0
0,0.034482247040215956,0.0002839414517029689,0.03371462269996956,0.03577878327343708,0.03448223071573858,0.0002839413172802974,0.03371460673889847,0.03577876633515756,2.3725609144103892e-05,1.9536673161285765e-07,2.3197443011399553e-05,2.461769462434238e-05,2.3725609144103892e-05,1.9536673161285765e-07,2.3197443011399553e-05,2.461769462434238e-05,0.402101694915255,20.19926332747581,-46.29,25.89,0.5351340634161735,0.0032244174136245897,0.5299769009638425,0.5406628131744088,1.2493732410637224e-07,2.1242395297886922e-08,9.887211256395791e-08,1.6414600428976013e-07,7.018825179463392e-08,6.180645147220379e-09,6.317003376092878e-08,8.509903439116101e-08,-1.091957842125039,0.0007415777947617998,-1.0931805744732532,-1.090737427409802,-0.19672620976829056,1.4864702557546143,-2.91290283203125,2.51617431640625,33.30157894736842,0.00987455949436666,33.29,33.31,0.13559322033898305,-0.000701754385965022,0,1,0
0,0.03452819950257497,0.00026572662750330055,0.034402676224458736,0.035090729748947905,0.03452818315634292,0.0002657265017038346,0.0344026599376515,0.03509071313640453,2.375722686785222e-05,1.8283396949077616e-07,2.367086021571383e-05,2.4144277420028106e-05,2.375722686785222e-05,1.8283396949077616e-07,2.367086021571383e-05,2.4144277420028106e-05,0.38694915254237255,19.649618554475747,-48.99,27.79,0.5281445056832815,0.0015899746221138622,0.525496566673304,0.5311570595903549,1.2317555562560225e-07,2.2070460193475308e-08,9.863196331778276e-08,1.7030628730333512e-07,1.3828749623127946e-07,3.864129106395269e-08,8.46343102848243e-08,2.0178892179740302e-07,-1.0945551325567708,0.0007727798258745735,-1.0958557188849598,-1.093319096091035,-0.014898032088698417,2.1323862655801475,-3.26385498046875,3.63922119140625,33.31444444444443,0.008314794192829326,33.31,33.33,0.13559322033898305,0.0006604747162021389,0,1,0
0,0.03471627885126668,0.00034267883670198744,0.034402676224458736,0.035090729748947905,0.034716262415994695,0.0003426786744720483,0.0344026599376515,0.03509071313640453,2.3886635404074772e-05,2.3578115811494094e-07,2.367086021571383e-05,2.4144277420028106e-05,2.3886635404074772e-05,2.3578115811494094e-07,2.367086021571383e-05,2.4144277420028106e-05,-0.7339322033898309,19.558799852148923,-47.58,22.43,0.5225843271657393,0.001958210408284314,0.5194871779546316,0.5273023805340915,2.6671538947172006e-07,4.918277852462185e-08,1.7883352435962824e-07,3.2077967199091617e-07,2.3447894023088235e-07,7.482152047551874e-08,1.1414476920934544e-07,3.562819746325205e-07,-1.097525080681375,0.0009085258716670868,-1.0989804459052195,-1.096019870595186,0.5925791435147042,1.6865516333551294,-2.23541259765625,2.93731689453125,33.34894736842105,0.01916541205898066,33.31,33.37,0.13559322033898305,0.002122807017543674,0,1,0
0,0.03513285547493698,0.001802148280849635,0.03371462269996956,0.043347372042818,0.03513283884245067,0.0018021474276822404,0.03371460673889847,0.04334735152144089,2.417326214682287e-05,1.2399733022413096e-06,2.3197443011399553e-05,2.9825283871799426e-05,2.417326214682287e-05,1.2399733022413096e-06,2.3197443011399553e-05,2.9825283871799426e-05,0.302244897959184,19.63840833762409,-46.04,27.36,0.5143513452572679,0.002787046823122775,0.5103542122500802,0.5196536774841647,2.129847041476188e-07,3.202551216767505e-08,1.7733652265370451e-07,2.769971202380372e-07,2.5168626128689037e-07,3.272552003210855e-07,9.183647126518099e-08,1.478131821296672e-06,-1.1000821547604884,0.000504939429010019,-1.1007394743807055,-1.099126027960847,0.18837694494659196,1.6847096649096553,-2.89154052734375,2.85491943359375,33.337777777777795,0.004157397096417619,33.33,33.34,0.13605442176870747,0.0004127966976266302,0,1,0
0,0.041366893654761316,0.002185944670898161,0.033026569175480386,0.04747569318975305,0.041366874070976126,0.002185943636035082,0.03302655354014544,0.04747567071395907,2.8462610026948866e-05,1.5040455110677672e-06,2.2724025807085277e-05,3.2665787097685084e-05,2.8462610026948866e-05,1.5040455110677672e-06,2.2724025807085277e-05,3.2665787097685084e-05,-3.1118305084745734,50.5736263019294,-95.95,89.11,0.5188255443943397,0.0028373426732915628,0.5124913475999798,0.5233310299668261,0.0008006235882905662,0.0003748526487744735,3.8188586192012306e-07,0.0012957653854577247,0.0007431688046294833,0.0031464687667810175,3.1238187087404e-08,0.014092496339912216,-1.1004238697386894,0.00038056163613063766,-1.1007915624322004,-1.0995940747336572,-0.3081148966370386,2.009453222431519,-3.29742431640625,3.20281982421875,33.39736842105262,0.009647527778852482,33.39,33.41,0.13559322033898305,0.0009122807017542045,0,1,0
0,0.041025776477194645,0.0014406174059107951,0.03577878327343708,0.04747569318975305,0.04102575705489998,0.0014406167238982153,0.03577876633515756,0.04747567071395907,2.822790337288871e-05,9.912209450552776e-07,2.461769462434238e-05,3.2665787097685084e-05,2.822790337288871e-05,9.912209450552776e-07,2.461769462434238e-05,3.2665787097685084e-05,4.148711864406775,38.77007739728609,-79.49,96.88,0.5272943984039224,0.028155211438057094,0.5105719810418512,0.594418608747329,0.004106687523350554,0.007315390098535496,8.30204366623559e-05,0.02171640919423876,0.013202886573982773,0.05443549490700987,3.1106242856689115e-08,0.23764618183425995,-1.0976764294783623,0.0011955406784501113,-1.0994404948964325,-1.0955413128412468,0.4691762802876784,1.9488281651327026,-2.77252197265625,3.20892333984375,33.411111111111104,0.019404721329525126,33.39,33.43,0.13559322033898305,0.0029927760577915363,0,1,0
0,0.04100891986161494,0.0008678968866802679,0.03853099737139378,0.044035425567307176,0.04100890044730056,0.0008678964758032431,0.03853097913016968,0.04403540472019392,2.8216305130109692e-05,5.971589463629038e-07,2.651136344159949e-05,3.02987010761137e-05,2.8216305130109692e-05,5.971589463629038e-07,2.651136344159949e-05,3.02987010761137e-05,-2.286881355932202,32.68980171302316,-67.05,111.66,0.5764406826868717,0.0028653334769480378,0.5711411522696094,0.5847767871688869,0.01586048739131678,0.002924821300096505,0.011580098977195582,0.021846154068327166,0.007283422679851011,0.014106848907106766,6.086352208889423e-07,0.056771171985438684,-1.092334525909203,0.0018459730223897356,-1.0952404038435186,-1.0892390582380251,-0.46204872616617865,2.26811296844484,-3.84674072265625,3.680419921875,33.43777777777778,0.009749960430437216,33.43,33.45,0.13559322033898305,0.0002683178534572143,0,1,0
0,0.035423054920639886,0.001953300774445823,0.030274355077523685,0.03853099737139378,0.03542303815076822,0.0019532998497202862,0.03027434074513332,0.03853097913016968,2.4372934709186668e-05,1.3439742097238563e-06,2.083035698982817e-05,2.651136344159949e-05,2.4372934709186668e-05,1.3439742097238563e-06,2.083035698982817e-05,2.651136344159949e-05,0.802244897959184,19.40867376740134,-44.73,35.38,0.5687210099202838,0.0036718699387867895,0.5643113603381841,0.5761130259579749,0.005800896236828316,0.0031717710747633577,0.0017187020296686977,0.011437708266390187,1.097544963437657e-06,1.5266769723806484e-06,8.45443329997031e-08,6.289012126597937e-06,-1.0859024573273053,0.001678356443236974,-1.088868816237408,-1.083432470973179,-0.11959247441254844,1.7154871860388923,-3.753662109375,2.96783447265625,33.46263157894739,0.01859318077121654,33.43,33.49,0.13605442176870747,0.002736842105263149,0,1,0
0,0.03119644041306361,0.0005231854286826461,0.029586301553034506,0.033026569175480386,0.031196425644142545,0.000523185180997839,0.029586287546380288,0.03302655354014544,2.1464800454113277e-05,3.599792373257462e-07,2.035693978551389e-05,2.2724025807085277e-05,2.1464800454113277e-05,3.599792373257462e-07,2.035693978551389e-05,2.2724025807085277e-05,2.443966101694915,27.593759590491363,-61.33,61.08,0.5606983872720712,0.0018739496914845048,0.5564549773593783,0.562856307340938,0.0006427770393591576,0.0004002246536553971,0.00018147134729111475,0.0015179129215999515,6.215406757721257e-08,1.1420523310357877e-08,4.9873545702149025e-08,8.219972340989257e-08,-1.0827414643441133,0.0002533451902220011,-1.0832471520816513,-1.0824535550775136,0.7533675574605375,1.4785317928319504,-1.824951171875,3.2196044921875,33.49666666666667,0.004714045207909378,33.49,33.5,0.13559322033898305,8.255933952526736e-05,0,1,0
0,0.032752277567744924,0.0006335460002324533,0.030274355077523685,0.035090729748947905,0.032752262062264115,0.0006335457003010902,0.03027434074513332,0.03509071313640453,2.253529867833834e-05,4.359131456483935e-07,2.083035698982817e-05,2.4144277420028106e-05,2.253529867833834e-05,4.359131456483935e-07,2.083035698982817e-05,2.4144277420028106e-05,-1.922406779661024,28.471360894003016,-77.52,46.27,0.5502803466358601,0.0030608767743662683,0.5439501361677701,0.5557988593173662,6.505651890549811e-05,4.2597815588545734e-05,1.695261228753151e-05,0.000160131807586787,1.0511958364060566e-07,4.123993857077218e-08,5.322484988509735e-08,1.8669383873711701e-07,-1.0854607715604816,0.0014004599809745242,-1.0878629798075867,-1.0833445462067381,-0.054766936574325374,1.9677891291415641,-3.34625244140625,3.118896484375,33.512631578947364,0.014811839241548233,33.5,33.53,0.16271186440677965,-0.0006315789473684449,0,1,0
0,0.03348527152513984,0.0011101300869014732,0.031650462126502035,0.03853099737139378,0.033485255672647436,0.0011101295613471635,0.03165044714263938,0.03853097913016968,2.3039637276628106e-05,7.638281957152145e-07,2.177719139845672e-05,2.651136344159949e-05,2.3039637276628106e-05,7.638281957152145e-07,2.177719139845672e-05,2.651136344159949e-05,-2.3170169491525425,21.06526618006525,-51.63,32.86,0.5409435704010274,0.003840444829046623,0.5364485590672217,0.5474672590740195,7.562037989307825e-06,5.0863279103848085e-06,2.3200625234314605e-06,2.182136463337137e-05,9.455170290261214e-05,0.0003883272311305867,1.2086432047754038e-07,0.0016956646432074829,-1.0900679646720797,0.0010480683919906972,-1.0915039564337734,-1.088137436728261,-0.07961366696643267,2.1695990593377372,-3.26995849609375,3.50494384765625,33.55166666666666,0.015000000000000301,33.5,33.57,0.13559322033898305,0.0005469556243549037,0,1,0
0,0.01417296647723278,0.01054923614899471,0.0,0.05298012138566645,-0.002106285302305194,0.017542024648094914,-0.022705755558849988,0.05298009630398331,-1.4492363397375798e-06,1.2069846171726191e-05,-1.5622767742371126e-05,3.64531247321993e-05,-1.4492363397375798e-06,1.2069846171726191e-05,-1.5622767742371126e-05,3.64531247321993e-05,2.549659863945578,55.29488240599188,-129.11,177.93,0.5417758953940992,0.004698161284617554,0.5360746830555013,0.5534175798878643,0.0017911273828336441,0.0006979918410341899,0.00039903413631332357,0.0027392320564868042,0.0015666804354663706,0.006458296235014161,1.3476001042497798e-07,0.02819491795776097,-1.0919750259084164,0.00015978236786418616,-1.0921188823687613,-1.0915975918756626,0.07551964695932847,1.7241245867691832,-3.21502685546875,3.34014892578125,33.55444444444444,0.00831479419283228,33.55,33.57,0.13605442176870747,0.0006604747162023736,0,1,0
0,0.022942865833473488,0.006598953657181602,0.0013761070489783493,0.04541153261628553,0.02245006011336744,0.008118838790616232,-0.01307301077630757,0.045411511117699976,1.544683567320028e-05,5.586193000043684e-06,-8.994926881971256e-06,3.124553548474225e-05,1.544683567320028e-05,5.586193000043684e-06,-8.994926881971256e-06,3.124553548474225e-05,-1.554983050847457,23.45745323894603,-68.99,42.8,0.5343327558225964,0.006422066330343859,0.524050898145653,0.5462924926554701,0.00031617581911417766,0.00020577959350388307,8.245144853967517e-05,0.0007722624071394543,1.2438528880489327e-07,1.734149632365795e-07,4.798599100106632e-08,8.009104243925785e-07,-1.0922988465800236,0.00019654630946308067,-1.0927605964926543,-1.092119773774547,0.6293138262651694,2.16429922054113,-3.07464599609375,3.73077392578125,33.568947368421064,0.013724636642534037,33.55,33.59,0.05423728813559322,0.0020000000000003127,0,1,0
0,0.031978106661973094,0.0014364139716717718,0.028898248028545334,0.04197126499383966,0.03197809152299796,0.0014364132916491674,0.02889823434762726,0.04197124512393483,2.20026281624159e-05,9.883287600505785e-07,1.9883522581199616e-05,2.8878449463170872e-05,2.20026281624159e-05,9.883287600505785e-07,1.9883522581199616e-05,2.8878449463170872e-05,3.8648813559322024,58.46091781494357,-181.73,112.55,0.5321235910880803,0.003749020730805244,0.5280990419512686,0.5399281847638413,3.09959722273814e-05,1.9152016735994832e-05,8.872442770313502e-06,7.281258432173632e-05,2.0941232762392046e-07,2.5819558244602207e-07,8.782647806026634e-08,1.1479692264520884e-06,-1.0939539658063278,0.0007037231791962585,-1.0951258019955414,-1.0928612831342304,-1.1963084733083016,2.603683454069785,-5.9173583984375,2.6275634765625,33.58777777777778,0.019876159799997708,33.57,33.61,0.16271186440677965,0.0033023735810112816,0,1,0
0,0.017238530194634172,0.011924355263475692,0.0013761070489783493,0.0488518002387314,0.00426778943550866,0.020521762328244656,-0.018577436366331808,0.04885177711146513,2.936466172706121e-06,1.4120064213998158e-05,-1.2782264516485466e-05,3.3612621506313634e-05,2.936466172706121e-06,1.4120064213998158e-05,-1.2782264516485466e-05,3.3612621506313634e-05,-6.750101694915257,65.75034931393834,-203.46,133.71,0.523710603721412,0.0030711836119218477,0.5192104128192979,0.5285306503392232,3.246459134855633e-06,2.0605410832103272e-06,9.468976988117861e-07,7.843647558795309e-06,1.224899250443892e-07,1.1036228437141956e-07,5.8273209505276804e-08,5.166448125778067e-07,-1.096065225548876,0.0003840048279475724,-1.0964467038297472,-1.0952579172395023,1.5045535179876512,2.9241432305012687,-5.181884765625,5.23834228515625,33.597368421052636,0.016170833153406908,33.57,33.61,0.10847457627118644,0.0025964912280700327,0,1,0
0,0.04050622585666199,0.004776607036629004,0.021329659259164413,0.04816374671424223,0.0405062066803314,0.004776604775302663,0.02132964916134393,0.0481637239127121,2.7870425075753424e-05,3.2865581948259907e-06,1.4675933333742575e-05,3.313920430199936e-05,2.7870425075753424e-05,3.2865581948259907e-06,1.4675933333742575e-05,3.313920430199936e-05,1.639931972789119,92.44485295618472,-235.2,200.7,0.5574206581095184,0.021227749321005487,0.5212320094586188,0.5966022930002107,0.011448236265293631,0.0068332182105122026,8.879921110427767e-07,0.01958942398612381,0.012004745367829788,0.039193740927205366,1.2368857632560903e-07,0.16678495911474212,-1.095428841125561,0.0006934348160244388,-1.0963632281623694,-1.0941608165463719,-1.5985848590103036,3.098439293359396,-5.68695068359375,2.4505615234375,33.606666666666676,0.009999999999998933,33.59,33.63,0.13605442176870747,0.0006811145510835805,0,1,0
0,0.04162957854970552,0.00035325627036059744,0.041283211469350475,0.042659318518328826,0.04162955884156076,0.0003532561031231203,0.041283191925181796,0.04265929832268786,2.8643351123613498e-05,2.4305899173289213e-07,2.8405032258856593e-05,2.935186666748515e-05,2.8643351123613498e-05,2.4305899173289213e-07,2.8405032258856593e-05,2.935186666748515e-05,-0.8658983050847476,33.140100065157334,-66.18,73.4,0.5443640365060864,0.0048260458769738175,0.5383213956199251,0.5531638825374782,0.0035693168310171617,0.0022988334940610483,0.0009378986992745988,0.00861360797104865,1.1989847063816282e-07,6.350677366590551e-08,7.155213790563386e-08,2.836039593445694e-07,-1.0925921591390717,0.000771438660228978,-1.0939863580908844,-1.0915288205518208,0.8546833956507832,1.1675761406819447,-1.24359130859375,3.00445556640625,33.629999999999995,0.012977713690460727,33.61,33.65,0.13559322033898305,0.0016842105263156785,0,1,0
0,0.041543556046184156,0.0006112697233202996,0.039219050895882956,0.044035425567307176,0.041543536378764026,0.0006112694339349024,0.03921903232892271,0.04403540472019392,2.8584163092921505e-05,4.2058588931886343e-07,2.6984780645913764e-05,3.02987010761137e-05,2.8584163092921505e-05,4.2058588931886343e-07,2.6984780645913764e-05,3.02987010761137e-05,7.332067796610177,17.784607364629885,-40.97,57.07,0.5361163142845158,0.0021784967385806023,0.5326320546805391,0.5412671558386511,0.00034991610503589825,0.00021817194322113062,9.876119851375554e-05,0.0008276574358449776,1.1673087194335324e-07,4.420918849487995e-08,7.076250938334305e-08,2.0062165766296033e-07,-1.0917691022107212,0.00037044092622852485,-1.0925650749173628,-1.0914108618114002,-0.025932366456668864,1.2927418164086382,-2.10723876953125,2.45819091796875,33.6511111111111,0.0031426968052729195,33.65,33.66,0.13559322033898305,0.00033023735810106946,0,1,0
0,0.041784039544998985,0.002666097951495672,0.023393819832631935,0.04747569318975305,0.04178401976372991,0.0026660966893199316,0.02339380875760302,0.04747567071395907,2.8749628455194242e-05,1.8344163552714416e-06,1.6096184946685404e-05,3.2665787097685084e-05,2.8749628455194242e-05,1.8344163552714416e-06,1.6096184946685404e-05,3.2665787097685084e-05,-1.5208843537415055,56.098665121993946,-130.97,109.88,0.5301868001482868,0.004642186361126769,0.5258165218416699,0.5434421489462624,3.6915601393697884e-05,2.293805731467234e-05,1.0534085747000296e-05,8.71624282365255e-05,1.2048504290175464e-07,4.174121866114997e-08,6.639702933471103e-08,1.861781386259761e-07,-1.0940645154687416,0.0008294860838911268,-1.0953828624825417,-1.0927104542967978,-0.03433180210312306,1.8818583809363723,-3.28521728515625,2.92510986328125,33.65777777777776,0.004157397096414663,33.65,33.66,0.08163265306122448,-0.0005779153766768717,0,1,0
0,0.04293079541914759,0.0005235621674487635,0.041283211469350475,0.04472347909179635,0.042930775094985045,0.0005235619195856012,0.041283191925181796,0.04472345791894695,2.953865712905133e-05,3.602384535161495e-07,2.8405032258856593e-05,3.0772118280427976e-05,2.953865712905133e-05,3.602384535161495e-07,2.8405032258856593e-05,3.0772118280427976e-05,-2.017728813559318,25.587845577195232,-64.52,39.82,0.5244484028286583,0.004000651130392812,0.5150674892644521,0.530782717446663,1.8513206694511865e-05,3.912626735259001e-05,1.5626255802232532e-06,0.0001593930601123986,0.0001192482764899375,0.0005045005558722857,7.884896231503393e-08,0.002259661647739642,-1.0961601325620625,0.00027603669774919275,-1.0963999484692653,-1.0955140612403613,0.1396202863593847,1.2524283332960198,-2.16217041015625,2.23846435546875,33.66421052631578,0.008153649149911627,33.66,33.68,0.13559322033898305,0.0006315789473685197,0,1,0
0,0.04316141163079385,0.0009651148314164857,0.03853099737139378,0.04816374671424223,0.043161391197453665,0.000965114374514846,0.03853097913016968,0.0481637239127121,2.9697333276038843e-05,6.64050032547469e-07,2.651136344159949e-05,3.313920430199936e-05,2.9697333276038843e-05,6.64050032547469e-07,2.651136344159949e-05,3.313920430199936e-05,1.163118644067798,24.224504635808973,-66.95,40.98,0.5276458602489357,0.0012559154930631149,0.5252232344583432,0.530062144001503,0.00012933093361985082,5.650348669882425e-05,4.6377839917640165e-05,0.0002085793554698104,2.178552092225894e-07,1.8036830808189689e-07,8.018912532365037e-08,6.342672814367914e-07,-1.0959163984267233,0.0002668586015928985,-1.096317428749344,-1.0954764126104772,-0.26709745657432904,1.7533728170920466,-3.12347412109375,2.72064208984375,33.67555555555555,0.020061633428077104,33.66,33.71,0.13559322033898305,0.0021465428276575384,0,1,0
0,0.04313674341287224,0.00039815682829336243,0.041283211469350475,0.04472347909179635,0.04313672299121048,0.00039815663979920357,0.041283191925181796,0.04472345791894695,2.9680360237825684e-05,2.7395294961859916e-07,2.8405032258856593e-05,3.0772118280427976e-05,2.9680360237825684e-05,2.7395294961859916e-07,2.8405032258856593e-05,3.0772118280427976e-05,-2.9745423728813565,35.39662719320843,-111.9,59.82,0.5266578860762322,0.0013801990979193338,0.5243414432716874,0.5291345360869997,1.6798262594629127e-05,1.0884637389150831e-05,4.464240182437573e-06,4.1014618605319974e-05,1.0531976240702944e-07,1.6623848986648837e-08,8.40643448483323e-08,1.3403973628034254e-07,-1.0953667016426236,0.00010929036320940979,-1.0956392224899685,-1.095254853369463,-0.16967972218250815,2.353650219973551,-3.64227294921875,3.66363525390625,33.67894736842104,0.018323047563716558,33.66,33.71,0.13559322033898305,-3.5087719298138906e-05,0,1,0
0,0.0432163142286295,0.0003243515419903999,0.041283211469350475,0.044035425567307176,0.043216293769297566,0.00032435138843690836,0.041283191925181796,0.04403540472019392,2.9735109166215776e-05,2.2317101033400123e-07,2.8405032258856593e-05,3.02987010761137e-05,2.9735109166215776e-05,2.2317101033400123e-07,2.8405032258856593e-05,3.02987010761137e-05,0.7494217687074829,27.730481509842015,-68.53,37.89,0.5234494918661396,0.0018294764680317254,0.5208204063131517,0.5268135825634589,1.7373445800935565e-06,1.009874903209271e-06,5.807046092234254e-07,3.953044840217276e-06,9.312544113380825e-08,1.1294377231683092e-08,7.611403169182832e-08,1.0738099534634988e-07,-1.0965286412538935,0.0005394521910353176,-1.0974562331165039,-1.095711470834575,0.4146874098860596,1.431122612863625,-2.23236083984375,2.783203125,33.675555555555555,0.008314794192832283,33.66,33.68,0.13605442176870747,0.0011558307533541539,0,1,0
0,0.04322649777500223,0.0005103757955992888,0.04197126499383966,0.04541153261628553,0.043226477310849235,0.000510375553978777,0.04197124512393483,0.045411511117699976,2.9742115984555027e-05,3.5116553248044734e-07,2.8878449463170872e-05,3.124553548474225e-05,2.9742115984555027e-05,3.5116553248044734e-07,2.8878449463170872e-05,3.124553548474225e-05,-2.196338983050849,33.57895893067773,-79.69,64.97,0.518601677135353,0.001187132196716718,0.5167828939269234,0.5204401667818354,3.0717064700930427e-07,9.340907996465006e-08,2.171974761611964e-07,5.276510514533124e-07,1.3512372503250832e-07,2.0463680557010965e-08,1.013200966589292e-07,1.6313528551436008e-07,-1.0985205794412947,0.0005403429253893736,-1.0993298085884133,-1.097572325269476,0.26751534814574285,2.01505473597453,-3.00140380859375,3.09295654296875,33.675789473684205,0.008153649149911629,33.66,33.68,0.13559322033898305,0.0007719298245615242,0,1,0
0,0.04331460758927081,0.0004968975404801992,0.03990710442037213,0.04541153261628553,0.04331458708340515,0.0004968973052405203,0.03990708552767574,0.045411511117699976,2.980274019540353e-05,3.4189178032250186e-07,2.745819785022804e-05,3.124553548474225e-05,2.980274019540353e-05,3.4189178032250186e-07,2.745819785022804e-05,3.124553548474225e-05,0.5594237288135577,28.050065337368178,-61.23,47.5,0.5155063706687445,0.0012525512590997215,0.5135556658132435,0.5183021529361116,1.9324141456338485e-07,1.1228412622733687e-08,1.8068939238237712e-07,2.1491596510812317e-07,1.3470565207617314e-07,4.6832735146928155e-09,1.2884401894664037e-07,1.47878346732669e-07,-1.0999770076167628,0.0003584320926918769,-1.1005958509329912,-1.0994006608201847,0.39564387753185115,1.6186774625704674,-2.4505615234375,2.87933349609375,33.67666666666666,0.007453559925000464,33.66,33.68,0.13559322033898305,-0.000928792569659588,0,1,0
0,0.04330553095011249,0.00041735064239868994,0.041283211469350475,0.04472347909179635,0.04330551044854387,0.0004173504448178563,0.041283191925181796,0.04472345791894695,2.9796494987753314e-05,2.8715930855792595e-07,2.8405032258856593e-05,3.0772118280427976e-05,2.9796494987753314e-05,2.8715930855792595e-07,2.8405032258856593e-05,3.0772118280427976e-05,0.3457627118644052,24.756754202753616,-54.45,36.01,0.5112797361782413,0.0016887417894530991,0.5093272690986397,0.5154002097112845,1.9973496673792003e-07,1.1865299905740864e-08,1.8100896689441431e-07,2.1556065325894972e-07,1.6053029757331736e-07,2.636123309450703e-08,9.595035084917013e-08,1.8963705598788617e-07,-1.1017087526095424,0.0007150300671551539,-1.1030329414432798,-1.100683576782859,0.047192882759172355,2.1759740873784668,-3.33709716796875,3.61480712890625,33.68111111111111,0.017603310575284633,33.66,33.71,0.13559322033898305,0.001506707946336489,0,1,0
0,0.037075319506658044,0.003248658278864615,0.025457980406099465,0.04472347909179635,0.03707530195457663,0.0032486567408949855,0.02545796835386211,0.04472345791894695,2.550978010458089e-05,2.2352486622233913e-06,1.7516436559628233e-05,3.0772118280427976e-05,2.550978010458089e-05,2.2352486622233913e-06,1.7516436559628233e-05,3.0772118280427976e-05,0.6740476190476195,36.881712846074784,-97.17,105.28,0.4999859123603,0.005922013122416583,0.49229287191958554,0.5084113951170403,1.4107878545072005e-07,3.4261963430385015e-08,1.0404313671109458e-07,2.0439850613912896e-07,7.036177350837042e-08,1.6552486845571247e-08,5.120008168375063e-08,9.912940224453943e-08,-1.1053896574282305,0.0013682699968452293,-1.1076931536413537,-1.1032373020084656,-0.7606934540031492,2.1360707473120386,-3.81927490234375,3.01971435546875,33.69263157894737,0.014811839241548233,33.68,33.71,0.13605442176870747,0.0023157894736842983,0,1,0
0,0.0370800001428792,0.001291923430526712,0.030274355077523685,0.041283211469350475,0.03707998258858166,0.001291922818908368,0.03027434074513332,0.041283191925181796,2.5513000629780277e-05,8.889116280919339e-07,2.083035698982817e-05,2.8405032258856593e-05,2.5513000629780277e-05,8.889116280919339e-07,2.083035698982817e-05,2.8405032258856593e-05,1.9898305084745755,18.280580813708493,-43.3,35.61,0.48886812028424576,0.003154857922798535,0.48354860071618394,0.49452273666779734,1.3793648205683493e-07,2.5027104264451134e-08,1.0666728703027257e-07,1.8821780887626788e-07,1.5750458788132022e-07,4.939134758003144e-08,9.960274437489304e-08,2.8304763423885596e-07,-1.1099712493021168,0.0011628433241309007,-1.1117248854096542,-1.1079538215609277,0.3054238608487822,3.0947336861150605,-5.27801513671875,4.400634765625,33.69888888888889,0.017916128329552097,33.68,33.73,0.13559322033898305,0.00016511867905041742,0,1,0
0,0.03444916632746474,0.0010720984667931693,0.028898248028545334,0.036466836797926255,0.034449150018648275,0.0010720979592436716,0.02889823434762726,0.03646681953391059,2.3702847864654e-05,7.376604302342043e-07,1.9883522581199616e-05,2.5091111828656657e-05,2.3702847864654e-05,7.376604302342043e-07,1.9883522581199616e-05,2.5091111828656657e-05,0.6589152542372883,20.88766688684663,-49.41,44.72,0.4829619778177758,0.0013818961390127658,0.48118902184891704,0.48526632536975434,8.400123565309094e-05,0.00028374383423900013,2.007155210457548e-07,0.0012420914243167712,0.0015755941375779979,0.0066793471401156886,2.7601503322067176e-07,0.02991366295647268,-1.1128150361456604,0.0004809375035383125,-1.113493587546129,-1.1118808125335136,0.03479704371752869,1.8918206222708112,-4.21295166015625,2.97393798828125,33.730000000000004,7.105427357601002e-15,33.73,33.73,0.13559322033898305,0.0,0,1,0
0,0.019223372959707722,0.010398745233465059,0.0006880535244891746,0.03853099737139378,0.009300419768178698,0.019778111897711004,-0.01444911717381363,0.03853097913016968,6.399183571241281e-06,1.360839315651541e-05,-9.941761290599808e-06,2.651136344159949e-05,6.399183571241281e-06,1.360839315651541e-05,-9.941761290599808e-06,2.651136344159949e-05,-4.118474576271185,37.96935255709907,-65.41,78.32,0.48242171049488763,0.011730083324234983,0.4624787402954003,0.49672783749095767,0.0017844077854668693,0.0006998888023487457,0.0006885189684845325,0.002746703982882238,9.162385318477416e-08,1.3528341483499642e-07,2.7245801472591813e-08,6.079944010473071e-07,-1.1142452783455243,0.0004965246732716806,-1.115204370297383,-1.1135542642381866,1.010298484828285,1.6839552582204431,-2.46124267578125,3.41949462890625,33.75111111111111,0.012422599875000773,33.73,33.77,0.10847457627118644,0.000928792569659588,0,1,0
0,0.025743499215581386,0.0013592554691506172,0.01788939163671854,0.029586301553034506,0.025743487028174576,0.0013592548256561514,0.01788938316757878,0.029586287546380288,1.7712888596792674e-05,9.352396307132069e-07,1.230884731217119e-05,2.035693978551389e-05,1.7712888596792674e-05,9.352396307132069e-07,1.230884731217119e-05,2.035693978551389e-05,0.5507823129251739,51.07012432966901,-127.35,92.59,0.4834845719358111,0.00966909159375116,0.4621157938373376,0.4967468233621075,0.0053777862314229544,0.0033695602495156444,0.0004758791865468442,0.011886615837304531,0.009650993165105882,0.015212888224862822,1.7401769186221883e-07,0.04827854442382078,-1.1174115835794562,0.0013942084007417023,-1.119881700305051,-1.1153714896630005,-0.7776298238976718,2.13815002235691,-4.2572021484375,2.86712646484375,33.761111111111106,0.01196703290474426,33.75,33.79,0.10884353741496598,0.0007017543859648974,0,1,0
0,0.017903338667620332,0.007679550095640036,0.0013761070489783493,0.04197126499383966,0.00010692718629269861,0.01948058603758395,-0.02201770236009696,0.04197124512393483,7.357159256235324e-08,1.3403679536743243e-05,-1.514935053805685e-05,2.8878449463170872e-05,7.357159256235324e-08,1.3403679536743243e-05,-1.514935053805685e-05,2.8878449463170872e-05,6.794847457627118,68.71873726094974,-213.51,129.77,0.4902049548589674,0.015704401766352453,0.46545583717747907,0.5094010030723772,0.013111586004593933,0.0031735808189200377,0.007839641388058835,0.018002610261749544,0.009889749230077167,0.027328434470197845,7.86625007354047e-08,0.09682976016279823,-1.123219456030784,0.0018013028592233817,-1.1260767095060422,-1.1202136995948648,0.14108889747790013,1.451144702105966,-2.23846435546875,2.84881591796875,33.76052631578947,0.015034586165353518,33.75,33.79,0.13559322033898305,-0.0006315789473682206,0,1,0
0,0.010821630942986188,0.0011308944056739225,0.00894469581835927,0.017201338112229368,-0.01082162581984357,0.001130893870289435,-0.01720132996882575,-0.00894469158378939,-7.445854261051749e-06,7.781151449028402e-07,-1.1835430107856916e-05,-6.154423656085595e-06,-7.445854261051749e-06,7.781151449028402e-07,-1.1835430107856916e-05,-6.154423656085595e-06,-6.51633898305085,23.78685143463141,-55.64,48.44,0.46346219076001716,0.01062912012274786,0.44929149912465033,0.47774355919417555,0.0070974364293764835,0.003380443859960704,0.002417953009360559,0.012687084415043761,0.000709071629071456,0.002914721962451483,3.210021043420497e-08,0.0127267385962479,-1.128075088782737,0.0008892949104216529,-1.1292247461607712,-1.1263533841634528,-0.08228904447162,1.1648225565619323,-2.21099853515625,2.24761962890625,33.769999999999996,7.105427357601002e-15,33.77,33.77,0.13559322033898305,0.0,0,1,0
0,0.022901024740768067,0.013664974775535934,0.002064160573467524,0.0571084425326015,0.005160398990647731,0.026164060821545838,-0.018577436366331808,0.05710841549650149,3.5506290323570737e-06,1.800226574063344e-05,-1.2782264516485466e-05,3.929362795808496e-05,3.5506290323570737e-06,1.800226574063344e-05,-1.2782264516485466e-05,3.929362795808496e-05,0.7749491525423731,40.53071932159889,-105.15,79.1,0.44472209255198764,0.022677034209670967,0.431550749041368,0.5191588259918617,0.003746422725576879,0.006265360346798493,0.0003728220109851604,0.022551194373859735,0.013826538569412072,0.05865994028184524,3.011909020106396e-08,0.2626995879023616,-1.1292066398531355,0.00022702997738039766,-1.1294158859628496,-1.128669654754505,-0.19892888980231274,3.0296353601161807,-5.7373046875,2.92816162109375,33.78894736842106,0.02381833368207135,33.77,33.83,0.08135593220338982,0.0037192982456137314,0,1,0
0,0.03803016929574516,0.003339620003437959,0.03371462269996956,0.04541153261628553,0.038030151291621496,0.003339618422405513,0.03371460673889847,0.045411511117699976,2.6166767245261854e-05,2.2978351381506584e-06,2.3197443011399553e-05,3.124553548474225e-05,2.6166767245261854e-05,2.2978351381506584e-06,2.3197443011399553e-05,3.124553548474225e-05,-0.8254761904761998,55.10787924340055,-166.05,97.99,0.4842633097024687,0.012879613764592283,0.4696036252519701,0.5176572335028528,0.015009206412575641,0.005702788892527469,0.007752000861252489,0.024281759598499007,0.0019529063514538703,0.0061866276288105645,1.500816684263384e-07,0.026227891105123635,-1.1272853821443176,0.0008468823605160525,-1.1285569139665887,-1.125813291948658,-0.0462302499018591,2.563966595819213,-5.32073974609375,3.62701416015625,33.82888888888888,0.009362388636862631,33.81,33.84,0.027210884353741496,0.0005985552115579538,0,1,0
0,0.035029881478074655,0.0003301756754168519,0.033026569175480386,0.036466836797926255,0.035029864894337875,0.00033017551910611816,0.03302655354014544,0.03646681953391059,2.4102410592435723e-05,2.2717832207090653e-07,2.2724025807085277e-05,2.5091111828656657e-05,2.4102410592435723e-05,2.2717832207090653e-07,2.2724025807085277e-05,2.5091111828656657e-05,1.5366440677966111,29.41006391671355,-68.01,56.32,0.46384203039513,0.0028513343205491017,0.45853607366405713,0.46868761278301446,0.003434161591135934,0.0019372041453591708,0.0009970825495335825,0.007128331032095311,0.00035009267896737753,0.0014808331755314357,1.1012993731893128e-07,0.0066327319612842495,-1.124097462361932,0.0008618968094026261,-1.1256250454772452,-1.122849616373441,0.857635763087876,2.0722823620434427,-3.314208984375,3.80706787109375,33.83631578947368,0.012230473724865604,33.83,33.87,0.13559322033898305,0.0015789473684212246,0,1,0
0,0.03502564360473941,0.0002166658270137098,0.034402676224458736,0.03577878327343708,0.03502562702300891,0.00021666572444045386,0.0344026599376515,0.03577876633515756,2.4099494711511927e-05,1.4907754476139675e-07,2.367086021571383e-05,2.461769462434238e-05,2.4099494711511927e-05,1.4907754476139675e-07,2.367086021571383e-05,2.461769462434238e-05,-0.9028474576271189,21.980120279134184,-50.91,26.99,0.45714833678890504,0.001786696610033982,0.4544496790594763,0.4600689234250523,0.0003728072759918331,0.00023214087886782613,0.00010527724061252078,0.0008805051804025958,8.305698710600009e-08,1.1754821663927313e-08,6.212527899800493e-08,1.0503388116894774e-07,-1.1227736875022558,0.00028403646087499815,-1.1234873951190811,-1.1225162524318981,0.1319186938241739,2.1637399362309133,-3.65447998046875,3.32183837890625,33.87888888888889,0.009938079900000618,33.87,33.89,0.13559322033898305,0.0016511867905059342,0,1,0
0,0.03451033085754206,0.0004446850752415128,0.03371462269996956,0.03577878327343708,0.034510314519769304,0.0004446848647200985,0.03371460673889847,0.03577876633515756,2.374493229530041e-05,3.0596684360772143e-07,2.3197443011399553e-05,2.461769462434238e-05,2.374493229530041e-05,3.0596684360772143e-07,2.3197443011399553e-05,2.461769462434238e-05,-2.175374149659865,24.641433686206504,-73.12,37.5,0.44647374682997476,0.005756393864512286,0.43761170357358664,0.4561707962403658,3.9304895719251295e-05,2.4474138196979864e-05,1.1137771409766775e-05,9.290343287552549e-05,6.293528584248988e-08,1.538741762964147e-08,4.6474428549688265e-08,1.011672658984429e-07,-1.1258143665540143,0.0014261283202697957,-1.1282858721205091,-1.1236722429168036,-0.009752562264946495,2.188363882666688,-3.59039306640625,3.60260009765625,33.88555555555555,0.015713484026367724,33.87,33.91,0.13605442176870747,0.0018163054695564688,0,1,0
0,0.034295021591375374,0.0003077140103789254,0.03371462269996956,0.035090729748947905,0.03429500535553365,0.00030771386470192274,0.03371460673889847,0.03509071313640453,2.3596788136127235e-05,2.117235089088158e-07,2.3197443011399553e-05,2.4144277420028106e-05,2.3596788136127235e-05,2.117235089088158e-07,2.3197443011399553e-05,2.4144277420028106e-05,2.54077966101695,23.799071048718666,-50.88,44.03,0.4340397138351135,0.003291411779396834,0.4298214239691675,0.43993695138847955,4.1495616074257884e-06,2.512953892750944e-06,1.5146740196518367e-06,9.84044086630532e-06,4.0467923337366077e-07,3.2993119969049035e-07,1.0945661104298419e-07,1.0193655896663061e-06,-1.131265955636554,0.0015422124423070495,-1.1336018035879678,-1.1286015039195645,-0.3808497199349605,2.105305630509688,-3.314208984375,3.64227294921875,33.88157894736842,0.00987455949436666,33.87,33.89,0.13559322033898305,0.00042105263157901315,0,1,0
