,net_acc_mean,net_acc_std,net_acc_min,net_acc_max,ACC_x_mean,ACC_x_std,ACC_x_min,ACC_x_max,ACC_y_mean,ACC_y_std,ACC_y_min,ACC_y_max,ACC_z_mean,ACC_z_std,ACC_z_min,ACC_z_max,BVP_mean,BVP_std,BVP_min,BVP_max,EDA_mean,EDA_std,EDA_min,EDA_max,EDA_phasic_mean,EDA_phasic_std,EDA_phasic_min,EDA_phasic_max,EDA_smna_mean,EDA_smna_std,EDA_smna_min,EDA_smna_max,EDA_tonic_mean,EDA_tonic_std,EDA_tonic_min,EDA_tonic_max,Resp_mean,Resp_std,Resp_min,Resp_max,TEMP_mean,TEMP_std,TEMP_min,TEMP_max,BVP_peak_freq,TEMP_slope,0,1,2
0,0.035231148835578284,0.001856224899017783,0.029586301553034506,0.05022790728770975,0.03523113215655826,0.0018562240202496048,0.029586287546380288,0.050227883508971186,2.4240893176010615e-05,1.2771808747349494e-06,2.035693978551389e-05,3.455945591494219e-05,2.4240893176010615e-05,1.2771808747349494e-06,2.035693978551389e-05,3.455945591494219e-05,2.343389830508477,14.602122066604986,-32.08,38.79,6.068404683197622,0.06490321343984384,5.922547566482877,6.158065394745382,0.2213123122652275,0.048311723004335894,0.13184781024654157,0.29773675578170056,0.06476441947437833,0.1455833667087053,2.689757661045178e-08,0.48132860846423675,0.5684963391754841,0.008509330357861092,0.5524235701337539,0.5802687578192942,-0.14027149604042236,2.0203908823333747,-4.31060791015625,3.08074951171875,33.09888888888891,0.009938079899997088,33.09,33.11,0.16271186440677965,-0.0013209494324042778,0,1,0
0,0.034351189226027555,0.0049258531690565726,0.01788939163671854,0.0488518002387314,0.03435117296359513,0.004925850837074593,0.01788938316757878,0.04885177711146513,2.3635434438520253e-05,3.3892474250294607e-06,1.230884731217119e-05,3.3612621506313634e-05,2.3635434438520253e-05,3.3892474250294607e-06,1.230884731217119e-05,3.3612621506313634e-05,-3.8801360544217687,52.94015070288403,-134.8,106.96,6.127711280730573,0.07932934611272434,5.914832033698432,6.194662769116015,0.3284717803381453,0.08690516423376082,0.1181944682945838,0.42707363849207725,0.4136287827277623,0.5274409699254677,4.2124741916893527e-07,1.92907440493966,0.5183378066990402,0.021563866961879397,0.4790395556722742,0.5498425939455592,0.5663040515988372,2.9215221364540636,-5.28717041015625,5.19561767578125,33.09000000000002,0.012977713690460727,33.07,33.11,0.05442176870748299,-0.000561403508772192,0,1,0
0,0.03653657195243527,0.00344838439168353,0.028898248028545334,0.04472347909179635,0.03653655465540582,0.0034483827591601894,0.02889823434762726,0.04472345791894695,2.5139093302066906e-05,2.372670787964969e-06,1.9883522581199616e-05,3.0772118280427976e-05,2.5139093302066906e-05,2.372670787964969e-06,1.9883522581199616e-05,3.0772118280427976e-05,7.471457627118644,69.40211147262289,-219.36,229.65,6.25838138261048,0.07789214363465646,6.174005928653866,6.393979404037689,0.5496091177507693,0.10646463211417005,0.4330367461989081,0.7148776414676491,0.5192667596982067,0.5487715375883484,4.3285341178034287e-07,1.9414302227050566,0.4197654176954276,0.034159359820482064,0.36253246123451965,0.4735551321933994,-0.19492475726831562,3.042023248491694,-4.96673583984375,5.438232421875,33.08333333333334,0.016329931618554498,33.07,33.11,0.08135593220338982,-0.002146542827657304,0,1,0
0,0.041975945630060664,0.003834278230261278,0.029586301553034506,0.05091596081219893,0.04197592575793996,0.0038342764150492877,0.029586287546380288,0.05091593670772422,2.888166998837029e-05,2.638186152277963e-06,2.035693978551389e-05,3.5032873119256466e-05,2.888166998837029e-05,2.638186152277963e-06,2.035693978551389e-05,3.5032873119256466e-05,-5.309932203389829,111.59171743456324,-282.98,287.63,6.050570256336748,0.13523278836851524,5.885979414827807,6.3527588079460475,0.47359739803511974,0.0940576503878689,0.361750937451382,0.6939636822045023,0.3564421122621701,0.6572544530236152,6.758913784210563e-08,2.093998171032812,0.2999595820172383,0.0318241417770193,0.25237315483896816,0.35568086815271416,0.008552305160030242,3.042190102118265,-4.09088134765625,5.60760498046875,33.07526315789474,0.008806947647728488,33.07,33.09,0.10847457627118644,0.0012280701754387884,0,1,0
0,0.03728041360053171,0.0011026194070923223,0.033026569175480386,0.03990710442037213,0.03728039595135508,0.0011026188850936972,0.03302655354014544,0.03990708552767574,2.565089568510939e-05,7.586604508942154e-07,2.2724025807085277e-05,2.745819785022804e-05,2.565089568510939e-05,7.586604508942154e-07,2.2724025807085277e-05,2.745819785022804e-05,3.0753220338983054,41.50528671837189,-128.27,169.41,5.936411795811738,0.08361553910049944,5.843438329768176,6.104484681207049,0.43291221769584465,0.06455590086113006,0.35486374269073895,0.5410385706006084,0.2585047444299446,0.4946293669012989,3.179007457276839e-08,1.328807509736066,0.23255316056970615,0.006604535383276982,0.2266922222165184,0.2485521954863179,-0.6285304946260277,3.7528253731365386,-6.16912841796875,5.40618896484375,33.07333333333334,0.0074535599250004645,33.07,33.09,0.13559322033898305,-0.000928792569659588,0,1,0
0,0.03805825311307136,0.0005250664193936405,0.03577878327343708,0.03853099737139378,0.03805823509565223,0.0005250661708183411,0.03577876633515756,0.03853097913016968,2.6186090396458395e-05,3.612734583885643e-07,2.461769462434238e-05,2.651136344159949e-05,2.6186090396458395e-05,3.612734583885643e-07,2.461769462434238e-05,2.651136344159949e-05,-3.111972789115648,21.442893995699936,-44.49,67.67,5.8825900272844835,0.06166616625012121,5.80512007180336,6.040717335364333,0.3548915139537518,0.07472887422529244,0.24148012028416316,0.49024018324001434,0.14949575204713916,0.24478765922098397,5.311090234272342e-08,0.819080021955882,0.26021789054809785,0.02117676706288664,0.23173221894823437,0.30027541141423386,1.6036556746608528,3.019822359380381,-3.08380126953125,6.66046142578125,33.05526315789473,0.01568385729026461,33.03,33.07,0.05442176870748299,-0.002350877192982549,0,1,0
0,0.038254839834353994,0.0003372657430137339,0.037842943846904606,0.03853099737139378,0.038254821723867384,0.0003372655833464409,0.03784292593141665,0.03853097913016968,2.6321352454833877e-05,2.320566634508251e-07,2.6037946237285214e-05,2.651136344159949e-05,2.6321352454833877e-05,2.320566634508251e-07,2.6037946237285214e-05,2.651136344159949e-05,1.1639999999999993,12.029652442955491,-26.38,20.2,5.774422566153202,0.010103382587664859,5.759161371000028,5.799062775250847,0.14751231953259836,0.044193967707267794,0.07384763279779485,0.23000834136996962,0.040232571698799534,0.0684284812574443,5.174301476174037e-08,0.2347280893524193,0.36434973225371464,0.037422226028494585,0.30610951307966205,0.4277337054187077,-0.04712802225338388,2.2865865265463294,-3.37066650390625,3.76129150390625,33.04111111111111,0.00993807989999709,33.03,33.05,0.13559322033898305,0.00033023735810106946,0,1,0
0,0.03527204115067131,0.0007214658870902617,0.03371462269996956,0.037842943846904606,0.035272024452292126,0.000721465545536139,0.03371460673889847,0.03784292593141665,2.42690292508947e-05,4.964066763962405e-07,2.3197443011399553e-05,2.6037946237285214e-05,2.42690292508947e-05,4.964066763962405e-07,2.3197443011399553e-05,2.6037946237285214e-05,-0.48108474576271193,15.703222540146356,-42.69,40.11,5.889298087693238,0.07397833493811909,5.745787673152798,5.943606577361645,0.12687091713927912,0.04151508815911009,0.05199315363845479,0.17805281691941624,0.10902338053258791,0.3693980476850891,1.1907229646723749e-07,1.614846101370761,0.49604199957618395,0.034976225367586516,0.4354857999323004,0.548780892266526,0.6891400333964377,3.687535482916528,-5.1483154296875,6.31866455078125,33.02777777777777,0.01685083432011381,33.0,33.05,0.08135593220338982,-0.001403508771929604,0,1,0
0,0.03565240609546956,0.0002664264844276208,0.035090729748947905,0.03577878327343708,0.035652389217019284,0.0002664263582968281,0.03509071313640453,0.03577876633515756,2.4530740443958087e-05,1.8331550805825335e-07,2.4144277420028106e-05,2.461769462434238e-05,2.4530740443958087e-05,1.8331550805825335e-07,2.4144277420028106e-05,2.461769462434238e-05,0.4697627118644073,14.918719021143536,-36.76,29.95,5.889402105590277,0.024079010095698072,5.8375946314677005,5.919201008617975,0.049632548927009114,0.026076197873178327,0.01515379786988891,0.09557879371627587,0.008782198433422633,0.02973166215394515,7.149583036714091e-08,0.13001269131302018,0.5717585144580155,0.007452552450014446,0.5534290560779769,0.5793794642200516,-1.9645260226341985,3.063205553551336,-7.00531005859375,1.48773193359375,33.01736842105263,0.014811839241548233,33.0,33.03,0.13559322033898305,-0.0018947368421053348,0,1,0
0,0.035540070826165227,0.0003275107757040933,0.035090729748947905,0.03577878327343708,0.03554005400089631,0.0003275106206549669,0.03509071313640453,0.03577876633515756,2.4453447839172106e-05,2.2534473016723992e-07,2.4144277420028106e-05,2.461769462434238e-05,2.4453447839172106e-05,2.2534473016723992e-07,2.4144277420028106e-05,2.461769462434238e-05,-0.22989795918367334,8.424440250070187,-20.13,13.23,5.816248147037426,0.013672497151998236,5.794592591714385,5.838250467042216,0.038051477896508874,0.02192088648544124,0.012545352112114806,0.08364484297547606,0.07099353080728119,0.1183021845495404,1.0762002854991515e-06,0.37762806622272516,0.5149653319964193,0.034926217897648555,0.4509843356776535,0.5640693932459966,1.1626004581120115,1.937328826971465,-2.7862548828125,4.180908203125,33.023333333333326,0.012472191289246943,33.0,33.03,0.16326530612244897,0.0,0,1,0
0,0.03549984265540083,0.00033781386438773165,0.035090729748947905,0.03577878327343708,0.03549982584917662,0.00033781370446094906,0.03509071313640453,0.03577876633515756,2.4425768730701427e-05,2.324337999369667e-07,2.4144277420028106e-05,2.461769462434238e-05,2.4425768730701427e-05,2.324337999369667e-07,2.4144277420028106e-05,2.461769462434238e-05,1.034474576271186,14.022809251366184,-31.75,22.62,5.773665700051518,0.011741221451851375,5.759369819314322,5.795962828478711,0.1666379278249573,0.054568789515233244,0.09154593714215059,0.27846852462792215,0.21336484336082248,0.1368774937457215,0.00010269043096666763,0.4602271698074585,0.345528456959746,0.06117762056904874,0.241568726282004,0.44164250113205894,0.35939654404708826,1.8352762248775123,-2.53448486328125,4.04510498046875,33.01842105263158,0.020586954963797092,33.0,33.05,0.10847457627118644,-0.003280701754385873,0,1,0
0,0.037608912035853946,0.0019303184388630471,0.034402676224458736,0.04059515794486131,0.03760889423116051,0.0019303175250177359,0.0344026599376515,0.04059513872642877,2.587691997731433e-05,1.3281611476974861e-06,2.367086021571383e-05,2.7931615054542318e-05,2.587691997731433e-05,1.3281611476974861e-06,2.367086021571383e-05,2.7931615054542318e-05,-1.0787796610169504,19.182004345588147,-38.5,46.0,5.641712054454116,0.13338634468150629,5.461631702149146,5.782327237739911,0.26017362189423127,0.061575034509366945,0.17418494885973035,0.34155211180723966,0.17251558435005887,0.27433184190058696,1.6741123154417892e-08,0.8674711880418728,0.12968006837233556,0.05912500688588987,0.037051329408297806,0.22939136204072974,1.8376169610090076,3.9754578863953203,-3.59954833984375,8.33282470703125,32.98666666666668,0.009428090415821551,32.97,33.0,0.10847457627118644,-0.0014860681114552234,0,1,0
0,0.039144160716346875,0.00024249129053112136,0.03853099737139378,0.03990710442037213,0.039144142184840774,0.0002424911757316534,0.03853097913016968,0.03990708552767574,2.6933252242723045e-05,1.6684682913154713e-07,2.651136344159949e-05,2.745819785022804e-05,2.6933252242723045e-05,1.6684682913154713e-07,2.651136344159949e-05,2.745819785022804e-05,0.7202721088435369,10.775430855888706,-22.08,20.5,5.4214580065189875,0.02720255923358481,5.383788426582354,5.466018203205265,0.2101501249017297,0.009783385515884643,0.19392037566648515,0.24069551038404136,0.18996969136755704,0.17178233193865236,1.4246773759829523e-05,0.615641790281888,-0.029664590219730107,0.029118162788673112,-0.06439010779035359,0.027686156005517937,-2.977431796620561,2.6052440394692447,-6.5887451171875,1.54571533203125,32.98111111111112,0.009938079900000616,32.97,32.99,0.13605442176870747,0.0009907120743035606,0,1,0
0,0.03821486467095279,0.003350178885093557,0.031650462126502035,0.04953985376322058,0.03821484657939127,0.003350177299062362,0.03165044714263938,0.04953983031021816,2.6293847428806456e-05,2.3051002070096445e-06,2.177719139845672e-05,3.408603871062791e-05,2.6293847428806456e-05,2.3051002070096445e-06,2.177719139845672e-05,3.408603871062791e-05,-0.5205762711864395,17.6097851267494,-38.22,37.92,5.586854127880505,0.09150744135360804,5.434667263781779,5.707622095161996,0.37491927450357354,0.06902572570970374,0.25779480351577033,0.4742200977623464,0.2703062145123124,0.5701215808245043,7.105429489229209e-08,2.5023866354042106,-0.038614941319207965,0.023201665543867565,-0.06481346912479868,0.007595072996027907,1.1604753972283073,3.267659260890734,-4.6356201171875,6.16302490234375,32.99,0.011239029738980754,32.97,33.0,0.08135593220338982,0.0014035087719298195,0,1,0
0,0.0425750670663505,0.0013522584052652348,0.03715489032241543,0.04541153261628553,0.04257504691059565,0.001352257765083296,0.037154872732663616,0.045411511117699976,2.9293897213895663e-05,9.304252808041854e-07,2.5564529032970932e-05,3.124553548474225e-05,2.9293897213895663e-05,9.304252808041854e-07,2.5564529032970932e-05,3.124553548474225e-05,0.7706440677966099,28.044158615771185,-56.74,79.53,5.567487820527198,0.02533293811556921,5.527873237959606,5.607735035209925,0.23938638567346684,0.06035173515860014,0.14448811806378223,0.3186885678898035,0.11860930143194987,0.26881454050902287,1.2048569431044598e-07,0.8921620533118881,0.0784227500016847,0.03903508927731251,0.01462697134164681,0.14097951088375715,-1.1636419766740032,3.0553255094806535,-4.64324951171875,6.77337646484375,32.985555555555564,0.00831479419283228,32.97,32.99,0.24406779661016947,-0.0006604747162023736,0,1,0
0,0.03929808407099323,0.005367630200841044,0.029586301553034506,0.0488518002387314,0.03929806546661731,0.005367627659714366,0.029586287546380288,0.04885177711146513,2.7039159649112025e-05,3.693213380981711e-06,2.035693978551389e-05,3.3612621506313634e-05,2.7039159649112025e-05,3.693213380981711e-06,2.035693978551389e-05,3.3612621506313634e-05,-1.8147796610169484,103.33600973032276,-226.31,234.46,5.595114771431826,0.09453643728196001,5.478890680489443,5.754494910249335,0.15237237974976287,0.06194732181304101,0.06187689018384243,0.2352274871825077,0.1343551134966531,0.4531115344326233,4.0002330337074454e-08,2.023771692010901,0.19177648197279615,0.02354811532978231,0.1475194462881252,0.2247431227121336,1.2292156740098674,2.7323893299825364,-2.52838134765625,6.73980712890625,32.977368421052645,0.009647527778855905,32.97,32.99,0.08135593220338982,-0.0006315789473685197,0,1,0
0,0.03568985118523768,0.0006126450402037913,0.032338515650991204,0.03715489032241543,0.03568983428906027,0.0006126447501672946,0.03233850034139241,0.037154872732663616,2.4556504645553396e-05,4.2153218005185637e-07,2.2250608602771e-05,2.5564529032970932e-05,2.4556504645553396e-05,4.2153218005185637e-07,2.2250608602771e-05,2.5564529032970932e-05,2.406156462585034,19.020787568263728,-39.76,52.66,5.62529650026141,0.02371898619788416,5.575784695626794,5.659016683761825,0.13508930134301886,0.0280590301415488,0.08237308022670949,0.17541053735109033,0.06624089701053794,0.12289981222039667,4.4092404660744933e-07,0.42369448234222906,0.23942457220028407,0.005930644558031094,0.22710504059168268,0.24633833684289097,-0.23862161943989416,2.67297201083088,-3.192138671875,5.41534423828125,32.97222222222222,0.019876159799997708,32.95,32.99,0.13605442176870747,-0.0006604747162022562,0,1,0
0,0.03578346390965796,5.655634264419378e-05,0.03577878327343708,0.036466836797926255,0.03578344696916274,5.655631586946703e-05,0.03577876633515756,0.03646681953391059,2.4620915149541733e-05,3.8913754043673496e-08,2.461769462434238e-05,2.5091111828656657e-05,2.4620915149541733e-05,3.8913754043673496e-08,2.461769462434238e-05,2.5091111828656657e-05,-1.468203389830508,14.583364675093607,-33.38,21.89,5.528901933740441,0.024826156914549573,5.495815820837738,5.57092659588911,0.03675171394639226,0.020782305709606708,0.01180430899352099,0.07712570053220788,0.0009455542592900885,0.0033129436040823723,9.689302782334153e-08,0.014649285907124554,0.2453942243333969,0.0015224082061263383,0.24198918420874083,0.2468216802055,0.07149291689283499,2.731615720437976,-4.04815673828125,4.78363037109375,32.96263157894738,0.009647527778852482,32.95,32.97,0.13559322033898305,-0.0014736842105260225,0,1,0
0,0.03578343228373755,5.6366254318882524e-05,0.03577878327343708,0.036466836797926255,0.035783415343257303,5.6366227634146865e-05,0.03577876633515756,0.03646681953391059,2.462089338923633e-05,3.878296322531609e-08,2.461769462434238e-05,2.5091111828656657e-05,2.462089338923633e-05,3.878296322531609e-08,2.461769462434238e-05,2.5091111828656657e-05,0.27220338983050835,12.758159724343196,-29.0,21.48,5.485124395035353,0.008157893177126023,5.471706242610029,5.497747501167732,0.006504706101216337,0.002322921620454073,0.002719985599511742,0.010691566069084418,0.0017282485617102232,0.007102330345736875,1.2263555754926658e-07,0.031011826109861612,0.23365899034963744,0.0052273772309359146,0.22428803595479152,0.24133240098101538,-0.21818884773502947,1.8566108770960483,-2.79693603515625,3.37066650390625,32.95,0.0,32.95,32.95,0.13559322033898305,0.0,0,1,0
0,0.03580218645454202,0.00012471941451822077,0.03577878327343708,0.036466836797926255,0.03580216950518324,0.0001247193554739456,0.03577876633515756,0.03646681953391059,2.46337972503394e-05,8.581355148026434e-08,2.461769462434238e-05,2.5091111828656657e-05,2.46337972503394e-05,8.581355148026434e-08,2.461769462434238e-05,2.5091111828656657e-05,0.4579322033898309,12.005940230109548,-25.95,18.08,5.452760563568562,0.009266669215434212,5.433137299457728,5.466314685285061,0.0010275687706445885,0.000635718257458098,0.0002915936200185185,0.0024099962332192696,1.5504132069069127e-07,2.950597034481556e-08,1.1974975904372603e-07,2.038373170740182e-07,0.2098953930851336,0.008397399914416034,0.19555280049332102,0.22295722799745377,0.029889330744114567,1.8540537023929469,-2.73590087890625,3.656005859375,32.95444444444445,0.00831479419282933,32.95,32.97,0.13559322033898305,-0.0006604747162021389,0,1,0
0,0.035825589635647116,0.00017324678047185086,0.03577878327343708,0.036466836797926255,0.03582557267520883,0.00017324669845390216,0.03577876633515756,0.03646681953391059,2.4649899876336492e-05,1.1920294504460895e-07,2.461769462434238e-05,2.5091111828656657e-05,2.4649899876336492e-05,1.1920294504460895e-07,2.461769462434238e-05,2.5091111828656657e-05,-0.003265306122448842,12.419556071424019,-27.3,18.93,5.418422600601193,0.008566064623715853,5.406598899254383,5.4311858016841486,0.0012791228463660022,0.0015938471895524482,0.0001583066863478846,0.005500344567806408,0.003766958063080869,0.010469131608978067,3.893897135391622e-07,0.038485351745466745,0.17703873370756834,0.010145198145079847,0.16053770859233618,0.19373038240446294,-0.1403647725896318,2.5590338159563424,-3.63616943359375,4.65850830078125,32.958421052631586,0.016307298299820357,32.95,32.99,0.13605442176870747,-0.0007017543859648973,0,1,0
0,0.036169300138687646,0.00034087106574624815,0.03577878327343708,0.036466836797926255,0.03616928301553092,0.00034087090437213475,0.03577876633515756,0.03646681953391059,2.4886390875439683e-05,2.3453731611508535e-07,2.461769462434238e-05,2.5091111828656657e-05,2.4886390875439683e-05,2.3453731611508535e-07,2.461769462434238e-05,2.5091111828656657e-05,-1.1984406779661014,13.064483810297743,-29.0,19.6,5.391146680319242,0.010037746899401312,5.366790918030457,5.404156306540902,0.006202912396360783,0.0017210545490209841,0.0030676645477819117,0.008624195055603542,0.0027395606023473376,0.008605535169437734,6.3684841275502e-08,0.03590220640704521,0.14543566266808228,0.007704431464119879,0.13361993759952917,0.15878630713194042,0.52348488130963,2.5038338824200417,-3.22723388671875,4.48760986328125,32.97222222222223,0.017497795275581533,32.95,32.99,0.16271186440677965,0.0024767801857583736,0,1,0
0,0.036382585345947946,0.00022554645046315983,0.03577878327343708,0.036466836797926255,0.03638256812181838,0.0002255463436856648,0.03577876633515756,0.03646681953391059,2.503314237506715e-05,1.5518788323997195e-07,2.461769462434238e-05,2.5091111828656657e-05,2.503314237506715e-05,1.5518788323997195e-07,2.461769462434238e-05,2.5091111828656657e-05,0.5579322033898304,13.271372457687178,-27.69,19.44,5.363602927777956,0.005203043700954485,5.353515731358763,5.374321987482894,0.004316386318160286,0.0024931475341303895,0.0011505816838678854,0.007746898868377991,0.004115723517986866,0.01745608182095823,1.3688730299277196e-07,0.07817560615802968,0.12293650216087358,0.0055747988969343945,0.11398469466116301,0.1324382209919458,0.378818843264142,2.3890651793381883,-3.11737060546875,4.27093505859375,32.98157894736843,0.009874559494366657,32.97,32.99,0.13559322033898305,0.00042105263157901315,0,1,0
0,0.03634596253011054,0.0002618346374539552,0.03577878327343708,0.036466836797926255,0.03634594532331885,0.0002618345134970202,0.03577876633515756,0.03646681953391059,2.5007943941412244e-05,1.801560745555681e-07,2.461769462434238e-05,2.5091111828656657e-05,2.5007943941412244e-05,1.801560745555681e-07,2.461769462434238e-05,2.5091111828656657e-05,0.043355932203389444,12.636176982684233,-28.47,19.91,5.342130243213749,0.007149909507041331,5.333670834417654,5.355240919671567,0.0021321870889592946,0.0012774515808174,0.0006200284630234019,0.004829274486603907,2.5210504646011754e-07,1.7801567923937521e-07,1.2286217436485725e-07,7.62121670279392e-07,0.10400080696284775,0.005752595097183253,0.09407970308636548,0.11300784698094979,0.2097067979415529,2.06834450562081,-2.63214111328125,4.02984619140625,32.995000000000005,0.004999999999999006,32.99,33.0,0.16271186440677965,-0.00048503611971094585,0,1,0
0,0.03628429198530664,0.0003141958777311408,0.035090729748947905,0.036466836797926255,0.03628427480771081,0.0003141957289855112,0.03509071313640453,0.03646681953391059,2.4965511345879406e-05,2.1618337636302065e-07,2.4144277420028106e-05,2.5091111828656657e-05,2.4965511345879406e-05,2.1618337636302065e-07,2.4144277420028106e-05,2.5091111828656657e-05,1.092925170068027,14.650083847865936,-32.34,28.74,5.326555571514881,0.008904169030078506,5.31240302775019,5.341809842736693,0.011814486044669103,0.013995915159749775,0.00017902181959616675,0.03421844723394438,0.02357603486973995,0.06795594548516412,1.7687893493455176e-07,0.2873200822974156,0.08022970327555887,0.007716542712276266,0.0675551698894945,0.09276365109676765,-0.5246525254360465,2.330872509566598,-3.13568115234375,3.8970947265625,33.00631578947368,0.012230473724865992,33.0,33.03,0.16326530612244897,0.0007368421052631857,0,1,0
0,0.036396627254611,0.00020827516356561047,0.03577878327343708,0.036466836797926255,0.03639661002383376,0.00020827506496463446,0.03577876633515756,0.03646681953391059,2.504280395066541e-05,1.4330432466941168e-07,2.461769462434238e-05,2.5091111828656657e-05,2.504280395066541e-05,1.4330432466941168e-07,2.461769462434238e-05,2.5091111828656657e-05,-1.1490847457627114,13.168105928286758,-34.76,22.1,5.311109549346844,0.014877735812289992,5.28885884307367,5.334774560347139,0.02036021066988312,0.008458644242262501,0.00914313012653788,0.03352399769999953,0.0032931139654431268,0.009331132460711808,7.633000165263581e-08,0.031686199096944034,0.05579263149533799,0.005961741215719629,0.046815775268229776,0.06618674288553861,-0.17489280310100255,2.145297079346053,-3.0181884765625,3.83758544921875,33.04333333333333,0.009428090415818758,33.03,33.05,0.13559322033898305,-0.00016511867905053473,0,1,0
0,0.03641104867431897,0.0002940292283097615,0.03577878327343708,0.03715489032241543,0.03641103143671442,0.00029402908911136435,0.03577876633515756,0.037154872732663616,2.505272664992847e-05,2.0230765528951386e-07,2.461769462434238e-05,2.5564529032970932e-05,2.505272664992847e-05,2.0230765528951386e-07,2.461769462434238e-05,2.5564529032970932e-05,-0.519016949152542,12.524227479124827,-28.22,22.52,5.275733014675854,0.007506718640348948,5.2632161807683016,5.288920707017606,0.0036221905992728765,0.002176019751654099,0.0010511449304292718,0.008228246226100215,3.297105944103898e-07,4.1352630127434365e-07,4.939189643393682e-08,1.4253126552482565e-06,0.04106203120990351,0.0026082759944555107,0.03743310990983384,0.04600671632307529,0.7255973188617456,2.017410301110819,-2.4566650390625,3.85894775390625,33.06111111111112,0.019116278371207537,33.03,33.09,0.16271186440677965,0.0034674922600622274,0,1,0
0,0.036555768886125474,0.0004899711816423759,0.03577878327343708,0.03853099737139378,0.03655575158000794,0.0004899709496817534,0.03577876633515756,0.03853097913016968,2.5152301807445554e-05,3.371260792245897e-07,2.461769462434238e-05,2.651136344159949e-05,2.5152301807445554e-05,3.371260792245897e-07,2.461769462434238e-05,2.651136344159949e-05,0.4415932203389827,14.458470410599842,-32.37,29.41,5.277135283002522,0.00975060904201382,5.263694108994744,5.299392707290015,0.0106836061316748,0.007911857044556509,0.0008188353126034269,0.03428925104032194,0.033063133471200504,0.06793841080710156,7.739079188606723e-08,0.2635360892378833,0.03504879008232377,0.0012270749567383295,0.032990873486922645,0.037146486596352335,-0.06531746156754033,3.022360459228314,-5.40313720703125,4.412841796875,33.101578947368424,0.020841041971814193,33.07,33.13,0.16271186440677965,0.0026666666666665347,0,1,0
0,0.03637322407350591,0.00023589663584084488,0.03577878327343708,0.036466836797926255,0.03637320685380814,0.00023589652416339789,0.03577876633515756,0.03646681953391059,2.502670132466831e-05,1.6230935802534704e-07,2.461769462434238e-05,2.5091111828656657e-05,2.502670132466831e-05,1.6230935802534704e-07,2.461769462434238e-05,2.5091111828656657e-05,0.168095238095238,11.685846741206081,-28.16,19.25,5.300973135275175,0.009004223808065462,5.288503214570065,5.317084242070908,0.03742333055227442,0.005911032319775218,0.02877041623837781,0.04766515405577436,0.014097338209407086,0.047667977026304424,3.126010553744507e-07,0.2066514729899619,0.029564291236091604,0.0021532035225254567,0.02569285401629895,0.03271907014312547,0.20861708496699558,1.7153304524676525,-2.21405029296875,3.48663330078125,33.13055555555555,0.01580162517036375,33.11,33.16,0.16326530612244897,0.0015376676986583468,0,1,0
0,0.03613675706658336,0.0003437439359021743,0.03577878327343708,0.036466836797926255,0.03613673995883318,0.00034374377316799586,0.03577876633515756,0.03646681953391059,2.4863999521181543e-05,2.3651400267967504e-07,2.461769462434238e-05,2.5091111828656657e-05,2.4863999521181543e-05,2.3651400267967504e-07,2.461769462434238e-05,2.5091111828656657e-05,0.8325084745762712,12.81322176552955,-25.64,23.33,5.272430081605543,0.006868467892380592,5.25922981273726,5.286280907653778,0.020675960100811318,0.003626536131203084,0.013991628409639252,0.02985870919878028,0.009155695862758854,0.025700631428063107,9.660401961708587e-08,0.10822806085962994,0.019218861340689185,0.0038458961887367807,0.012519248631912006,0.025138049241391736,-0.3342252215439865,1.8705046138103352,-2.69622802734375,3.37677001953125,33.1536842105263,0.00482376388942624,33.15,33.16,0.16271186440677965,-0.00045614035087710223,0,1,0
0,0.036265569440422585,0.00031300825148628854,0.03577878327343708,0.036466836797926255,0.036265552271690316,0.00031300810330290056,0.03577876633515756,0.03646681953391059,2.4952629245081728e-05,2.1536622671317937e-07,2.461769462434238e-05,2.5091111828656657e-05,2.4952629245081728e-05,2.1536622671317937e-07,2.461769462434238e-05,2.5091111828656657e-05,-1.131084745762712,14.842663799124308,-33.05,22.74,5.23695862811663,0.011299109257922354,5.21851480739202,5.254656976585472,0.005852346064634027,0.0030422969590753147,0.002317332267390059,0.012566070583001894,0.0028211146296181037,0.011482058350785387,4.9008713254306e-08,0.05015946581541131,0.0030510528705756843,0.005886500808625379,-0.008012791155631138,0.01167369735987922,-0.1668354239184184,1.7934363154963484,-2.4200439453125,3.42864990234375,33.15222222222221,0.004157397096414665,33.15,33.16,0.13559322033898305,-0.0002476780185758021,0,1,0
0,0.03629833389396968,0.00029588137540603813,0.03577878327343708,0.036466836797926255,0.03629831670972618,0.00029588123533080357,0.03577876633515756,0.03646681953391059,2.4975172921477647e-05,2.0358203042035713e-07,2.461769462434238e-05,2.5091111828656657e-05,2.4975172921477647e-05,2.0358203042035713e-07,2.461769462434238e-05,2.5091111828656657e-05,0.5093877551020407,12.703443275495333,-26.45,20.77,5.2301837127927,0.005531167188652789,5.216991123676405,5.238407109448101,0.03503121916602649,0.015582846151183704,0.007545736324724132,0.056220476712511985,0.06831846965851694,0.11259400999528789,3.6495842032913117e-06,0.4277682692232929,-0.03464006296085444,0.017896484605306157,-0.06854989207562301,-0.00988343329321939,0.5829884455754206,1.9146192135916356,-2.57415771484375,3.45001220703125,33.1611111111111,0.010999438818457928,33.15,33.18,0.16326530612244897,0.0012383900928794212,0,1,0
0,0.03619719420049122,0.00033588898339491005,0.03577878327343708,0.036466836797926255,0.036197177064129026,0.00033588882437939884,0.03577876633515756,0.03646681953391059,2.4905583464803744e-05,2.3110938003963983e-07,2.461769462434238e-05,2.5091111828656657e-05,2.4905583464803744e-05,2.3110938003963983e-07,2.461769462434238e-05,2.5091111828656657e-05,0.5411864406779661,13.931437328932926,-32.66,20.54,5.2276788492762005,0.005384447736864368,5.215923503827962,5.236390036165704,0.13980434973705788,0.04345874657172588,0.06669164091025953,0.2108865521810681,0.16604361329901515,0.11631790511051389,0.00011447358373972705,0.34951430470334355,-0.14177633292652583,0.046105865399891775,-0.22419392387499465,-0.07405489281722,0.07430850424186763,1.86226064452795,-2.59246826171875,3.363037109375,33.17473684210525,0.01983309861201943,33.16,33.21,0.16271186440677965,0.0010877192982456719,0,1,0
0,0.034014183418114526,0.0027952530651992203,0.030274355077523685,0.04197126499383966,0.03401416731522634,0.0027952517418792606,0.03027434074513332,0.04197124512393483,2.3403556624162265e-05,1.923281902320006e-06,2.083035698982817e-05,2.8878449463170872e-05,2.3403556624162265e-05,1.923281902320006e-06,2.083035698982817e-05,2.8878449463170872e-05,-1.8224745762711854,30.930175123954694,-69.03,111.72,5.086609366480758,0.1212598552991801,4.92317714316134,5.211059986448097,0.19282566115481015,0.05383295801663008,0.11506656882010427,0.2653170619456934,0.10235676473376579,0.2176073338447314,1.5524282304113513e-08,0.8867389522246905,-0.32554365553157283,0.054692494638022074,-0.41244669345641594,-0.2347793700556573,-0.7750432756869571,1.8317124985402269,-3.83148193359375,2.89154052734375,33.21166666666667,0.014999999999999736,33.16,33.23,0.16271186440677965,0.0018679050567594235,0,1,0
0,0.032287376537684535,0.00018047503494967874,0.031650462126502035,0.032338515650991204,0.032287361252295976,0.00018047494950975413,0.03165044714263938,0.03233850034139241,2.2215422188936887e-05,1.2417636630497865e-07,2.177719139845672e-05,2.2250608602771e-05,2.2215422188936887e-05,1.2417636630497865e-07,2.177719139845672e-05,2.2250608602771e-05,1.1275593220338982,13.450523327064438,-25.83,30.1,4.897777267055991,0.020009695079223448,4.862095617701703,4.9254451328976225,0.16721219319058045,0.013707872601585873,0.13054448012414804,0.180922333673611,0.1376807565233876,0.13060179709296846,5.665747929040066e-06,0.46839369964736166,-0.47983655518499413,0.029276548477429595,-0.5146829047608413,-0.42149899722709405,0.6153845017956149,1.692345610487967,-1.92108154296875,3.67279052734375,33.24368421052632,0.01458569101110603,33.21,33.25,0.16271186440677965,0.0016842105263157536,0,1,0
0,0.03230107056122305,0.00017550825547382764,0.031650462126502035,0.033026569175480386,0.0323010552693515,0.00017550817238525974,0.03165044714263938,0.03302655354014544,2.2224844401175717e-05,1.207589594169769e-07,2.177719139845672e-05,2.2724025807085277e-05,2.2224844401175717e-05,1.207589594169769e-07,2.177719139845672e-05,2.2724025807085277e-05,-0.10489795918367335,11.881442562691626,-23.35,17.81,4.841249351388367,0.005475379733294127,4.827620566931404,4.854650581222204,0.13982813556070356,0.013466850286427585,0.10601760738201545,0.1611942422279029,0.07552277746932162,0.11668271396034703,8.601767591542853e-07,0.4094751879443548,-0.5058325309733872,0.009688709594114936,-0.5159612507460692,-0.4862672977764194,-0.2771145652600613,2.015494464124119,-2.935791015625,3.84063720703125,33.314444444444455,0.03059088866207941,33.27,33.37,0.16326530612244897,0.0055314757481938525,0,1,0
0,0.032343196287212175,0.0001881592473956483,0.031650462126502035,0.033026569175480386,0.032343180975397616,0.0001881591583178867,0.03165044714263938,0.03302655354014544,2.2253829127970462e-05,1.2946351075530004e-07,2.177719139845672e-05,2.2724025807085277e-05,2.2253829127970462e-05,1.2946351075530004e-07,2.177719139845672e-05,2.2724025807085277e-05,-0.08806779661016993,12.342968216850567,-27.27,19.21,4.79447454091532,0.011475786025452002,4.778028982752374,4.817649855386454,0.04786273059626704,0.02494112984973029,0.014894189105157035,0.0966837574739672,0.005605471740667176,0.023058818381576446,5.518814871763311e-08,0.10339168222579498,-0.4578752969752184,0.013810657805979731,-0.48313574592787745,-0.43960835043583835,0.19954842314235033,1.7916165135802558,-2.386474609375,3.46832275390625,33.382631578947354,0.02806798237046798,33.34,33.41,0.13559322033898305,0.004315789473683913,0,1,0
0,0.03249193299091109,0.00028639563764404374,0.032338515650991204,0.033026569175480386,0.03249191760868199,0.00028639550205951717,0.03233850034139241,0.03302655354014544,2.2356167844273528e-05,1.9705534130053002e-07,2.2250608602771e-05,2.2724025807085277e-05,2.2356167844273528e-05,1.9705534130053002e-07,2.2250608602771e-05,2.2724025807085277e-05,0.5482372881355932,12.500409550360544,-27.73,20.6,4.765914442040148,0.006109916813306027,4.75408739657635,4.7784699250932245,0.006914541644491373,0.0024531496235590906,0.004287108929453566,0.013160905016888902,0.001998254980974409,0.005838487754493268,5.367549818502404e-08,0.022381704306284472,-0.4421525338438497,0.004400432774087959,-0.45172909601351646,-0.43795013039931163,0.08757967331969438,1.8760078830377598,-2.53143310546875,3.546142578125,33.44333333333334,0.020000000000001024,33.41,33.47,0.13559322033898305,0.00251805985552155,0,1,0
0,0.03292359517861812,0.0002582422001523011,0.032338515650991204,0.03371462269996956,0.03292357959203274,0.00025824207789608737,0.03233850034139241,0.03371460673889847,2.2653174252698064e-05,1.776842877490309e-07,2.2250608602771e-05,2.3197443011399553e-05,2.2653174252698064e-05,1.776842877490309e-07,2.2250608602771e-05,2.3197443011399553e-05,0.26254237288135607,12.871112787315552,-27.6,21.17,4.733585811570332,0.008548949187365215,4.72062827166767,4.752352327874402,0.00481506228162859,0.0028529905605770883,0.0015208567102797561,0.009052762289265319,0.0051226110341939185,0.014787351464175258,1.0814123055369329e-07,0.05709136809621949,-0.4709823378569301,0.010901826223355364,-0.48874660512373314,-0.45352903512003984,0.38176230899007135,2.3515757544423717,-3.26385498046875,3.89556884765625,33.472777777777786,0.018798804795208707,33.45,33.5,0.16271186440677965,0.0033539731682144637,0,1,0
0,0.03296572090460724,0.00021119993291324055,0.032338515650991204,0.03371462269996956,0.03296570529807886,0.0002111998329276297,0.03233850034139241,0.03371460673889847,2.2682158979492826e-05,1.4531672062196006e-07,2.2250608602771e-05,2.3197443011399553e-05,2.2682158979492826e-05,1.4531672062196006e-07,2.2250608602771e-05,2.3197443011399553e-05,-0.18931972789115642,12.90383640996169,-27.39,19.38,4.696697263053671,0.011929187513599221,4.678062368825698,4.717978344033489,0.003717158792013261,0.0018162051643178902,0.0013061469416178792,0.007253449650664392,0.000520350146661263,0.0015636691442762062,2.5239340568916635e-07,0.006135989084905924,-0.5053288561288912,0.00835511938613659,-0.5182669757678856,-0.49067001544066313,0.3260819782582364,2.587381388113692,-3.62701416015625,4.14581298828125,33.51894736842104,0.014471291668282147,33.5,33.53,0.13605442176870747,0.0022105263157895572,0,1,0
0,0.03304516521668287,0.0001115762472144609,0.033026569175480386,0.03371462269996956,0.03304514957254416,0.00011157619439238304,0.03302655354014544,0.03371460673889847,2.2736820866661296e-05,7.677035745636886e-08,2.2724025807085277e-05,2.3197443011399553e-05,2.2736820866661296e-05,7.677035745636886e-08,2.2724025807085277e-05,2.3197443011399553e-05,-0.09471186440678034,12.926754170771336,-29.71,22.36,4.666788836386386,0.008817085752465918,4.654419055547809,4.682184462413017,0.0004948764504307925,0.00030558331031562075,0.00014066678320048557,0.0011583469523445637,1.2390140980667582e-07,3.747241970276667e-08,8.22825470224442e-08,2.422188754187815e-07,-0.5302923755340468,0.006608890762188713,-0.5413523509545691,-0.5195493331449049,-0.3260059457294252,1.8200136956393238,-2.90679931640625,3.13262939453125,33.5788888888889,0.01911627837120754,33.55,33.61,0.16271186440677965,0.0034674922600622274,0,1,0
0,0.03303593044792248,7.970836264601064e-05,0.033026569175480386,0.03371462269996956,0.03303591480815568,7.970832491072714e-05,0.03302655354014544,0.03371460673889847,2.273046685748407e-05,5.4843567922071545e-08,2.2724025807085277e-05,2.3197443011399553e-05,2.273046685748407e-05,5.4843567922071545e-08,2.2724025807085277e-05,2.3197443011399553e-05,-0.3380677966101701,13.734482695415139,-28.44,20.32,4.639900674616412,0.006723716567481022,4.628962149229361,4.651697922661815,0.0024663941141621986,0.0026981041012981623,4.578399110621594e-05,0.006333947727948601,0.00509968017134545,0.010109152092014843,1.3112871877956137e-07,0.03046132438647854,-0.5569845120791699,0.00898676651061435,-0.5721185910636344,-0.5427605493881659,-0.12871290258970805,1.6480059698974157,-2.08892822265625,3.13873291015625,33.61105263157895,0.013724636642531741,33.59,33.63,0.13559322033898305,0.0014385964912280206,0,1,0
0,0.033640238535159905,0.0008162158169234052,0.032338515650991204,0.03577878327343708,0.03364022260930352,0.0008162154305130691,0.03233850034139241,0.03577876633515756,2.3146262773095277e-05,5.61599637836099e-07,2.2250608602771e-05,2.461769462434238e-05,2.3146262773095277e-05,5.61599637836099e-07,2.2250608602771e-05,2.461769462434238e-05,0.12488135593220374,12.957120595968302,-27.46,18.76,4.6158783222961794,0.01359329787519712,4.586853409282048,4.630337909428976,0.010072268485884224,0.0033842483261652357,0.004673831582154938,0.014895466022518011,0.0058394247711466805,0.01700480242362328,4.469065131851302e-08,0.06471418942893717,-0.5880250734064898,0.008417218872179793,-0.6012839420426064,-0.5738544993408925,-0.22231672182239956,2.6624581339495514,-4.736328125,5.18798828125,33.642222222222216,0.00974996043043375,33.63,33.65,0.13559322033898305,0.001589267285861397,0,1,0
0,0.034412037496900735,0.0002268056845799951,0.03371462269996956,0.035090729748947905,0.03441202120566175,0.00022680557720635883,0.03371460673889847,0.03509071313640453,2.3677301266112633e-05,1.56054302891863e-07,2.3197443011399553e-05,2.4144277420028106e-05,2.3677301266112633e-05,1.56054302891863e-07,2.3197443011399553e-05,2.4144277420028106e-05,0.24081632653061208,14.725667350767083,-34.42,24.06,4.588012901695211,0.005592840878568077,4.5789650064751015,4.601670145175421,0.009316718769258445,0.005030111381896611,0.002259765402518459,0.015529406659721074,0.009904911296103734,0.027690963937856597,1.450230733279767e-07,0.1189441753526998,-0.612385949521812,0.005268034935428674,-0.6199632597119697,-0.6026578496346293,1.010734617248062,2.604600843294357,-2.69012451171875,6.19659423828125,33.66999999999998,0.010760551736980742,33.65,33.68,0.16326530612244897,0.0011754385964913557,0,1,0
0,0.034950310662317394,0.0004242113052837782,0.03371462269996956,0.03577878327343708,0.034950294116250794,0.00042421110445499215,0.03371460673889847,0.03577876633515756,2.404766166404561e-05,2.918798073668128e-07,2.3197443011399553e-05,2.461769462434238e-05,2.404766166404561e-05,2.918798073668128e-07,2.3197443011399553e-05,2.461769462434238e-05,-0.47915254237288035,15.047662861285147,-53.09,25.81,4.578182417181178,0.0016517019362131554,4.57507858219049,4.581343738968079,0.011276978785342071,0.0018035144924150419,0.008782490503093751,0.014372039618377207,0.010271252302598226,0.018521859036505904,1.6641995329302883e-06,0.05247190078906927,-0.6246194954617444,0.002264083146029417,-0.6280810244723978,-0.6205688743571602,-0.624042336999205,2.340031204458141,-3.97491455078125,3.46221923828125,33.67999999999999,7.105427357601002e-15,33.68,33.68,0.13559322033898305,0.0,0,1,0
0,0.033486821195240074,0.00036115958527744945,0.033026569175480386,0.034402676224458736,0.033486805342013974,0.0003611594142984091,0.03302655354014544,0.0344026599376515,2.304070353159281e-05,2.484968902677909e-07,2.2724025807085277e-05,2.367086021571383e-05,2.304070353159281e-05,2.484968902677909e-07,2.2724025807085277e-05,2.367086021571383e-05,0.8295593220338984,13.187312706384585,-25.98,23.0,4.565897353417128,0.007454866773464512,4.557460201001142,4.577084828164972,0.006901567212434598,0.003718342500842634,0.002162530819969862,0.013838889931481656,1.489439790276307e-07,1.4122042090355832e-07,6.205671548853431e-08,6.632581308618768e-07,-0.6320878751923006,0.002407114110469912,-0.6363934198995843,-0.6284527349038216,0.4812142954751493,2.3703738357154838,-2.50396728515625,5.09796142578125,33.718888888888884,0.02469567863432497,33.68,33.75,0.16271186440677965,0.0018988648090816189,0,1,0
0,0.033700580791306556,9.72851969585375e-05,0.033026569175480386,0.03371462269996956,0.033700564836883024,9.728515090208457e-05,0.03302655354014544,0.03371460673889847,2.3187781435801328e-05,6.693735926935043e-08,2.2724025807085277e-05,2.3197443011399553e-05,2.3187781435801328e-05,6.693735926935043e-08,2.2724025807085277e-05,2.3197443011399553e-05,-0.31783050847457656,14.016242516322169,-28.7,19.87,4.5445549189405705,0.005374326580472306,4.53612109007251,4.5571071000773715,0.0007768730521720272,0.0005084813121788088,0.00020196561699049452,0.0019098881187297394,5.900487465059978e-07,8.648960336353938e-07,6.058091254340647e-08,2.7282829689486386e-06,-0.6441880800823089,0.004806888643718316,-0.6528223349832579,-0.6370199363094186,0.031052393002190603,1.5951632494379722,-2.41546630859375,2.41546630859375,33.72684210526315,0.01623920907425366,33.71,33.75,0.13559322033898305,0.0010877192982458339,0,1,0
0,0.0337146226999696,4.163336342344337e-17,0.03371462269996956,0.03371462269996956,0.03371460673889839,8.326672684688674e-17,0.03371460673889847,0.03371460673889847,2.319744301139958e-05,2.710505431213761e-20,2.3197443011399553e-05,2.3197443011399553e-05,2.319744301139958e-05,2.710505431213761e-20,2.3197443011399553e-05,2.3197443011399553e-05,-0.5092176870748291,13.526416573000915,-27.93,19.16,4.527424340471249,0.0061378162736492985,4.514397986524108,4.5375865638530115,0.004329034469803241,0.002378000970007617,0.00041661558490068963,0.007553701765660293,0.005201179310734948,0.015546704304730563,1.4898840454413698e-07,0.06607841471262345,-0.6659945699967629,0.00786746326694553,-0.6796433436029237,-0.6539950496564867,0.025517295667018842,1.5541860568181538,-2.26898193359375,3.35235595703125,33.75,0.013333333333335418,33.73,33.77,0.13605442176870747,0.0006604747162023736,0,1,0
0,0.033691377648466594,0.00012431213615010626,0.033026569175480386,0.03371462269996956,0.03369136169839998,0.00012431207729864387,0.03302655354014544,0.03371460673889847,2.31814491869295e-05,8.553332242896561e-08,2.2724025807085277e-05,2.3197443011399553e-05,2.31814491869295e-05,8.553332242896561e-08,2.2724025807085277e-05,2.3197443011399553e-05,1.0255254237288138,14.64659621400594,-31.44,20.87,4.504208812853825,0.005219692885617155,4.4954848892975425,4.512783119283784,0.011608857135287498,0.004012803355215628,0.004074756782886853,0.016064928845035728,0.010234805489354732,0.03322299874472271,8.293053760377589e-08,0.14707883195418542,-0.6944407050373719,0.006974911310045062,-0.7033977262890185,-0.6813852592981611,-0.1674836681735131,1.7941348738692038,-2.655029296875,3.34320068359375,33.762631578947364,0.01859318077121612,33.75,33.79,0.13559322033898305,0.0027368421052630996,0,1,0
0,0.03612046971757116,0.0039040939527686938,0.029586301553034506,0.0460995861407747,0.03612045261753151,0.003904092104504758,0.029586287546380288,0.046099564316453005,2.48527929638998e-05,2.686223060730948e-06,2.035693978551389e-05,3.1718952689056526e-05,2.48527929638998e-05,2.686223060730948e-06,2.035693978551389e-05,3.1718952689056526e-05,-0.24108474576271177,18.063932118148852,-51.74,58.42,4.506835003760067,0.03291255769040936,4.484347091337658,4.585633417776494,0.015400668136308825,0.01860093998381263,0.0023544220353878776,0.05715855780956077,0.03404908731843913,0.09711371026963087,4.651179004444561e-08,0.34395987685964347,-0.695302177487902,0.008428257979755492,-0.7036702795812703,-0.6769374187968945,0.41439519178560347,1.8775823908992537,-2.37884521484375,4.03900146484375,33.794444444444444,0.008314794192832282,33.79,33.81,0.13559322033898305,0.0004953560371517803,0,1,0
0,0.04116619556382508,0.00025849658425615494,0.04059515794486131,0.041283211469350475,0.04116617607505367,0.0002584964618795138,0.04059513872642877,0.041283191925181796,2.8324519128871192e-05,1.7785931746253967e-07,2.7931615054542318e-05,2.8405032258856593e-05,2.8324519128871192e-05,1.7785931746253967e-07,2.7931615054542318e-05,2.8405032258856593e-05,0.02142857142856824,17.679914388625175,-61.39,45.54,4.689333239375137,0.05608558278981514,4.553123313925361,4.744953529104783,0.12444577674357538,0.02673391616894703,0.05643711020846752,0.1472481112393061,0.12202677526271205,0.21309650471860817,5.288590683161232e-07,0.9223582850655085,-0.632038759066484,0.02728971258823583,-0.6732443682077108,-0.5846922642712815,0.17620919655925288,2.357686708253502,-3.26080322265625,4.78668212890625,33.81444444444443,0.008314794192829326,33.81,33.83,0.16326530612244897,0.00016511867905053473,0,1,0
0,0.04122742334574322,0.00018781080995772397,0.04059515794486131,0.041283211469350475,0.04122740382798555,0.00018781072104492004,0.04059513872642877,0.041283191925181796,2.836664708012842e-05,1.2922376737507018e-07,2.7931615054542318e-05,2.8405032258856593e-05,2.836664708012842e-05,1.2922376737507018e-07,2.7931615054542318e-05,2.8405032258856593e-05,0.5810169491525425,8.863151426163414,-19.62,15.47,4.757349286523906,0.007457828720372872,4.744653620778914,4.766588438306367,0.0790284716230976,0.0257559291358482,0.03644223099687112,0.12174807721828823,0.023145907356379957,0.04672980952963549,1.6515942559136576e-06,0.166023036253363,-0.5238413270874214,0.032682334267834436,-0.5785609208489015,-0.4720372332289584,-0.6567843794526889,1.5931377238595137,-2.728271484375,2.545166015625,33.804736842105264,0.008806947647728488,33.79,33.81,0.16271186440677965,-0.0012280701754387884,0,1,0
0,0.04116151492760407,0.00027452639707531754,0.03990710442037213,0.041283211469350475,0.04116149544104863,0.00027452626710989234,0.03990708552767574,0.041283191925181796,2.8321298603671756e-05,1.8888867622668993e-07,2.745819785022804e-05,2.8405032258856593e-05,2.8321298603671756e-05,1.8888867622668993e-07,2.745819785022804e-05,2.8405032258856593e-05,-1.3033898305084741,9.069079225620127,-17.98,17.39,4.785764714846392,0.01026160569665711,4.767846400719436,4.798812975339279,0.014028615295774087,0.008578409319230791,0.004015623308772519,0.03248730913932815,2.304115532112467e-07,4.2252532213286737e-07,3.4112079050352406e-08,1.7944818279103103e-06,-0.4314099461409921,0.020021548336674654,-0.46699205643711417,-0.401355070677259,0.4323724408790335,1.6861204724624426,-1.873779296875,4.32586669921875,33.76555555555555,0.014229164972073185,33.75,33.79,0.16271186440677965,-0.00251805985552122,0,1,0
0,0.039656057864139636,0.0008912044826478852,0.03715489032241543,0.041283211469350475,0.03965603909029296,0.0008912040607366495,0.037154872732663616,0.041283191925181796,2.7285464545951183e-05,6.131958047315408e-07,2.5564529032970932e-05,2.8405032258856593e-05,2.7285464545951183e-05,6.131958047315408e-07,2.5564529032970932e-05,2.8405032258856593e-05,0.22908474576271132,10.41303792480017,-24.64,20.31,4.86229043283497,0.034757635345074825,4.798882967959683,4.897246437599045,0.03301685271802277,0.019716691429089567,0.0024352010956509088,0.053288649761893035,0.038816002041377695,0.09216265415186736,1.336914854377369e-07,0.3737595688347584,-0.37765079621140185,0.011631556937101422,-0.398504531245334,-0.3601397119817623,0.03219774875688198,2.264066315199217,-3.99169921875,4.3609619140625,33.75,0.0,33.75,33.75,0.08135593220338982,0.0,0,1,0
0,0.040464100130672934,0.00027018260548070246,0.03990710442037213,0.04059515794486131,0.04046408097428542,0.00027018247757169855,0.03990708552767574,0.04059513872642877,2.7841440348958594e-05,1.858999179402272e-07,2.745819785022804e-05,2.7931615054542318e-05,2.7841440348958594e-05,1.858999179402272e-07,2.745819785022804e-05,2.7931615054542318e-05,0.20605442176870772,9.674120013616466,-22.61,18.37,4.894806013837154,0.00407544590520402,4.887457523132171,4.901009511910706,0.03116245800624818,0.00415408370251691,0.025231340752910763,0.038547035382979364,0.022683371382884083,0.03617384990304862,7.598298611410925e-07,0.09946240032779474,-0.34642667180650366,0.00704536609523551,-0.3585344738298678,-0.3354165724254289,-0.0984253421906502,2.135830836751361,-2.874755859375,3.97796630859375,33.74111111111111,0.00993807990000062,33.73,33.75,0.19047619047619047,0.0009907120743035606,0,1,0
0,0.04057175476375627,0.00012471941451822044,0.03990710442037213,0.04059515794486131,0.04057173555640326,0.00012471935547394547,0.03990708552767574,0.04059513872642877,2.791551242854517e-05,8.581355148026508e-08,2.745819785022804e-05,2.7931615054542318e-05,2.791551242854517e-05,8.581355148026508e-08,2.745819785022804e-05,2.7931615054542318e-05,-0.68071186440678,10.302446237486508,-19.4,18.84,4.909135886390302,0.002428267562857741,4.9046929203825265,4.913388824920436,0.022858252131283265,0.003393067687457889,0.018085401443610035,0.027960990552891016,0.010656323374207423,0.017211649041728363,9.6366974927653e-07,0.054772200172087726,-0.32462457592124483,0.005680263663625455,-0.3342532989360832,-0.3155315424029372,0.5056996499338458,1.986645115769134,-2.66571044921875,3.9703369140625,33.78157894736842,0.009874559494363151,33.77,33.79,0.16271186440677965,0.0015438596491224997,0,1,0
0,0.04058121091395954,9.696279749044064e-05,0.03990710442037213,0.04059515794486131,0.04058119170212983,9.696275158661647e-05,0.03990708552767574,0.04059513872642877,2.792201875986021e-05,6.671553138906721e-08,2.745819785022804e-05,2.7931615054542318e-05,2.792201875986021e-05,6.671553138906721e-08,2.745819785022804e-05,2.7931615054542318e-05,0.5997288135593221,10.646204731297212,-21.84,18.55,4.911674813243059,0.005009282191989427,4.899032409245791,4.917784883083079,0.007908745348874266,0.004484362647018876,0.002392662501288209,0.016838167032062954,1.1738420890976727e-07,8.871190529060027e-08,4.115701658646831e-08,3.4068869625425435e-07,-0.30646453563923737,0.004923458693769307,-0.31456783951033823,-0.2984675151121897,-0.25237364832599674,1.5415201712314017,-2.17437744140625,2.71148681640625,33.81,0.014907119849998282,33.79,33.83,0.13559322033898305,0.0013622291021673882,0,1,0
0,0.04066068685195554,0.0002701826054807007,0.03990710442037213,0.04197126499383966,0.04066066760250055,0.00027018247757169903,0.03990708552767574,0.04197124512393483,2.7976702407334114e-05,1.8589991794022654e-07,2.745819785022804e-05,2.8878449463170872e-05,2.7976702407334114e-05,1.8589991794022654e-07,2.745819785022804e-05,2.8878449463170872e-05,-0.9338305084745757,9.655755493008515,-19.35,16.37,4.921299180469654,0.004702622922278298,4.908122428300533,4.928205797772254,0.0008941963673135411,0.000556949369608883,0.0002524366583307752,0.0021125323790099518,2.8719048199587036e-07,3.248007267977964e-07,9.784883733647554e-08,1.4017781143280117e-06,-0.2904298908763363,0.004171668139535342,-0.2975582986464948,-0.28394733271381045,0.03132525712408858,1.8317117053735905,-2.65960693359375,3.35845947265625,33.86,0.0208166599946606,33.83,33.89,0.13559322033898305,0.003777089783281642,0,1,0
0,0.04060919985352438,9.728519695853698e-05,0.04059515794486131,0.041283211469350475,0.04060918062844424,9.72851509020842e-05,0.04059513872642877,0.041283191925181796,2.7941276630140506e-05,6.693735926935037e-08,2.7931615054542318e-05,2.8405032258856593e-05,2.7941276630140506e-05,6.693735926935037e-08,2.7931615054542318e-05,2.8405032258856593e-05,0.1340476190476194,8.937024776069082,-19.85,16.61,4.948794739143511,0.017200840030318427,4.926614534819472,4.97882100658183,0.014618039345287394,0.013364457939236083,0.0001352320817913539,0.03926660232131827,0.02771327442530383,0.06214810937568712,2.090352590206762e-07,0.20179834618053805,-0.27879894696722646,0.00238886180596023,-0.283294556533499,-0.2754633933170561,0.34017920678900193,2.053998893245413,-2.9632568359375,3.68499755859375,33.900526315789456,0.009986139979477107,33.89,33.91,0.16326530612244897,0.0015789473684207384,0,1,0
0,0.04063235002726616,0.00025018414710111674,0.03990710442037213,0.041283211469350475,0.04063233079122631,0.00025018402865972284,0.03990708552767574,0.041283191925181796,2.7957205173694393e-05,1.7213992119624195e-07,2.745819785022804e-05,2.8405032258856593e-05,2.7957205173694393e-05,1.7213992119624195e-07,2.745819785022804e-05,2.8405032258856593e-05,0.161491525423728,9.11732084936508,-17.99,16.14,4.976121975333526,0.005282117396207374,4.966237329591834,4.983678568376448,0.03435754541301689,0.00558006225255178,0.023209835299777246,0.03942040020171473,0.025217418097607403,0.04429124105046557,5.015426728371963e-07,0.14341583636689093,-0.27310272191858637,0.0013518173247426518,-0.27520910998377707,-0.2706641144865543,-0.3569747067888516,2.363295794857299,-3.34320068359375,4.57611083984375,33.92777777777777,0.01474055462380408,33.91,33.95,0.13559322033898305,0.0013209494324047473,0,1,0
0,0.04060451921730337,7.970836264600966e-05,0.04059515794486131,0.041283211469350475,0.040604499994439124,7.970832491072729e-05,0.04059513872642877,0.041283191925181796,2.7938056104941086e-05,5.484356792207161e-08,2.7931615054542318e-05,2.8405032258856593e-05,2.7938056104941086e-05,5.484356792207161e-08,2.7931615054542318e-05,2.8405032258856593e-05,0.2525084745762719,9.040421158580198,-17.71,14.44,4.977207557438002,0.004073482796228314,4.97147306659192,4.984837274918629,0.025589669904599578,0.008762464161732103,0.010507894915395456,0.0371407140146115,0.007514881351164581,0.01861382655163627,3.5031228945436865e-08,0.0692226549724605,-0.26485602310445233,0.003913303327007577,-0.2702779205223234,-0.2574930255546458,0.09609582110610848,2.5341897448376214,-3.057861328125,5.0079345703125,33.93736842105263,0.00964752777885591,33.93,33.95,0.13559322033898305,0.0009122807017545285,0,1,0
0,0.04059050893456074,5.6366254318882436e-05,0.03990710442037213,0.04059515794486131,0.040590489718329195,5.636622763414675e-05,0.03990708552767574,0.04059513872642877,2.7928416289648238e-05,3.878296322531647e-08,2.745819785022804e-05,2.7931615054542318e-05,2.7928416289648238e-05,3.878296322531647e-08,2.745819785022804e-05,2.7931615054542318e-05,0.3704067796610168,8.330651540471946,-18.66,14.85,4.9671111336245675,0.0077504441348294085,4.950635842934253,4.978088021366981,0.003962695603686965,0.0024536991269786825,0.001124313541847437,0.009304672208124209,1.2722724216194848e-06,4.098608693197903e-06,3.870621162471721e-08,1.812176894022688e-05,-0.2479198256042963,0.004947555349860793,-0.25645475478938684,-0.24060525849846887,0.4819140314427067,2.0984193469086936,-2.73895263671875,3.44085693359375,33.98111111111112,0.014487116456006272,33.95,34.0,0.13559322033898305,0.002518059855521249,0,1,0
0,0.04059515794486134,3.469446951953614e-17,0.04059515794486131,0.04059515794486131,0.04059513872642888,1.1102230246251565e-16,0.04059513872642877,0.04059513872642877,2.793161505454225e-05,6.776263578034403e-20,2.7931615054542318e-05,2.7931615054542318e-05,2.793161505454225e-05,6.776263578034403e-20,2.7931615054542318e-05,2.7931615054542318e-05,-0.027176870748299067,8.707463831890589,-16.86,16.74,4.974166634373368,0.003584518091995189,4.966834125088802,4.981195547032643,0.0004263130626911054,0.00024749044645720926,0.00014931498394615353,0.0009921843454266017,0.0012933826838640488,0.005405824570086023,2.3453635808641515e-07,0.02422645214855877,-0.24062656569500282,0.0025390554076536354,-0.24704643914789431,-0.2384163020204476,0.03250240355499031,1.7339095624486662,-2.40631103515625,3.375244140625,33.9942105263158,0.0049372797471815754,33.99,34.0,0.13605442176870747,0.0002105263157894318,0,1,0
0,0.04059515794486134,3.469446951953614e-17,0.04059515794486131,0.04059515794486131,0.04059513872642888,1.1102230246251565e-16,0.04059513872642877,0.04059513872642877,2.793161505454225e-05,6.776263578034403e-20,2.7931615054542318e-05,2.7931615054542318e-05,2.793161505454225e-05,6.776263578034403e-20,2.7931615054542318e-05,2.7931615054542318e-05,0.09891525423728796,8.72783411361903,-16.66,15.98,4.975811774257843,0.003484028138562837,4.96914018178207,4.982129166727047,0.027477144350782978,0.014053762139438613,0.0028964603998233905,0.05396555888644505,0.04522462528478924,0.06540540177384335,2.802870093576715e-06,0.18678083923788624,-0.26663780754546523,0.01193219364656356,-0.2871667849968688,-0.24861425764055756,-0.23479881842906453,1.6978391780355675,-2.37884521484375,3.36761474609375,34.041111111111114,0.009938079899997086,34.03,34.05,0.13559322033898305,0.0016511867905053474,0,1,0
0,0.0410275159028173,0.0012137656891186676,0.037842943846904606,0.04472347909179635,0.041027496479699235,0.0012137651145015184,0.03784292593141665,0.04472345791894695,2.8229100189685768e-05,8.351349695676074e-07,2.6037946237285214e-05,3.0772118280427976e-05,2.8229100189685768e-05,8.351349695676074e-07,2.6037946237285214e-05,3.0772118280427976e-05,-1.3306440677966105,21.082444442070123,-54.74,67.67,4.957848074755983,0.032219090771402836,4.902129515893758,4.990123790359268,0.05468653047415187,0.014534914615565466,0.02702231632365918,0.07435488570352349,0.025407761815046004,0.07504440552752956,2.7895788790033293e-08,0.31813351581186966,-0.30932118345468884,0.01113506108885661,-0.3256183130432608,-0.28972940560358185,-0.02249428621553095,2.029246662933302,-3.11431884765625,3.67584228515625,34.08111111111111,0.019116278371206438,34.05,34.11,0.13559322033898305,0.002807017543859677,0,1,0
0,0.04293079541914758,0.0007927013627734904,0.04059515794486131,0.0460995861407747,0.04293077509498504,0.0007927009874952928,0.04059513872642877,0.046099564316453005,2.9538657129051342e-05,5.454204501008225e-07,2.7931615054542318e-05,3.1718952689056526e-05,2.9538657129051342e-05,5.454204501008225e-07,2.7931615054542318e-05,3.1718952689056526e-05,1.8884067796610176,37.377894706843584,-112.33,126.79,4.9041911267377465,0.008404658202128575,4.8853104552598055,4.916117747128418,0.024848855159939554,0.005918603864494296,0.015153226138455345,0.03402544470130804,0.01966908963909438,0.04800505226188059,1.615337361648983e-07,0.1858098516248997,-0.3310930915926096,0.0015952492052469683,-0.3325765414098737,-0.32687276448690844,0.24376341486095496,1.9634612322606346,-2.508544921875,3.73077392578125,34.097368421052636,0.016170833153406908,34.07,34.11,0.21694915254237288,0.0020350877192980153,0,1,0
0,0.042982282417578746,0.0004193808262426193,0.04197126499383966,0.044035425567307176,0.042982262069041384,0.00041938062770066175,0.04197124512393483,0.04403540472019392,2.957408290624494e-05,2.885561823844941e-07,2.8878449463170872e-05,3.02987010761137e-05,2.957408290624494e-05,2.885561823844941e-07,2.8878449463170872e-05,3.02987010761137e-05,-2.6884353741496616,45.0772461900964,-156.27,140.24,4.896895886659494,0.004377091399527735,4.889365046945002,4.905392006484449,0.01131352939706653,0.006343321176225891,0.004015522411797334,0.024291466411180834,0.0007451515840801703,0.002127321202189818,2.1893927173999295e-07,0.00760831736759171,-0.32471222243367,0.0033182456242815276,-0.3300701660566454,-0.3195610869205599,0.3972107955894754,2.1261438007690283,-3.3111572265625,3.472900390625,34.06666666666667,0.013743685418726441,34.05,34.11,0.13605442176870747,-0.0007223942208462215,0,1,0
0,0.042924312105463075,0.0006523706207353751,0.041283211469350475,0.04472347909179635,0.04292429178436981,0.0006523703118921191,0.041283191925181796,0.04472345791894695,2.9534196266444054e-05,4.4886547986888516e-07,2.8405032258856593e-05,3.0772118280427976e-05,2.9534196266444054e-05,4.4886547986888516e-07,2.8405032258856593e-05,3.0772118280427976e-05,2.8868135593220337,31.388766035580723,-101.89,60.86,4.893093408874193,0.00348006320110298,4.887179839097145,4.8983871263529215,0.002072119275629025,0.0007111415641828086,0.0010358188516365273,0.003668216094709935,0.0009877289532708357,0.004189292688326582,8.064688445524881e-08,0.018761392500491754,-0.31886876128967123,0.000993799171484537,-0.3212384625424662,-0.3178685062898162,-0.451151372185416,2.0034861570150735,-3.04412841796875,3.86810302734375,34.01631578947369,0.02344321836980931,33.99,34.05,0.16271186440677965,-0.003929824561403275,0,1,0
0,0.04242528670727802,0.0010752431041096576,0.03990710442037213,0.04678763966526387,0.04242526662243169,0.0010752425950714378,0.03990708552767574,0.04678761751520604,2.9190840407514383e-05,7.398241069744106e-07,2.745819785022804e-05,3.219236989337081e-05,2.9190840407514383e-05,7.398241069744106e-07,2.745819785022804e-05,3.219236989337081e-05,2.377016949152543,27.63761980325989,-52.42,94.17,4.887078718784035,0.008630639977568516,4.872129189563597,4.903281250311001,0.005569859536356426,0.0071805913838365164,0.0005846123335856877,0.019923067179425984,0.011893747593822758,0.04903773580878325,6.232071160516828e-08,0.21408151196571468,-0.326670081225935,0.0030131925418856297,-0.33141919743552584,-0.3217540123912387,0.4894648358720524,1.632515650673836,-2.60772705078125,2.84271240234375,33.99000000000001,0.011547005383792951,33.97,34.0,0.16271186440677965,-0.0016511867905056408,0,1,0
0,0.04210700344424899,0.0004923797936825201,0.04059515794486131,0.044035425567307176,0.042106983510083344,0.0004923795605816212,0.04059513872642877,0.04403540472019392,2.8971844693954012e-05,3.3878333165879653e-07,2.7931615054542318e-05,3.02987010761137e-05,2.8971844693954012e-05,3.3878333165879653e-07,2.7931615054542318e-05,3.02987010761137e-05,-7.670544217687073,35.94977159781574,-78.49,70.28,4.893555227133422,0.0067100059811896874,4.875128732138155,4.899319358006904,0.01723902711773005,0.004274070179728233,0.009688228157940546,0.02237081581441532,0.009172926063170973,0.015140312888604368,1.483969397364504e-07,0.04370339553929631,-0.33346764905264253,0.0006460716237312904,-0.3341247785276822,-0.3318684572713888,-0.20561360247969332,1.8146897636546913,-2.4505615234375,3.81622314453125,33.98111111111112,0.016629588385661608,33.95,33.99,0.16326530612244897,-0.0023116615067078974,0,1,0
0,0.04210143728225643,0.0003695890090609901,0.041283211469350475,0.044035425567307176,0.042101417350725874,0.00036958883409131973,0.041283191925181796,0.04403540472019392,2.8968014880203394e-05,2.542967795199367e-07,2.8405032258856593e-05,3.02987010761137e-05,2.8968014880203394e-05,2.542967795199367e-07,2.8405032258856593e-05,3.02987010761137e-05,4.082135593220341,29.42184890632063,-52.99,69.96,4.8910754984597835,0.004096207794615581,4.882079711661039,4.899345206423644,0.009535327053450166,0.0023584305233490055,0.005197619381005344,0.013180990176646614,0.004853722458262388,0.017620843406693915,1.6949804668153767e-07,0.07849806137187973,-0.32832373663098585,0.003072447950614689,-0.332748446087052,-0.32280880923031213,-0.3500221384961907,1.540689389671843,-2.50091552734375,2.764892578125,33.94368421052631,0.019523407358939357,33.91,33.97,0.16271186440677965,-0.002807017543859913,0,1,0
0,0.04210700344424899,0.0003070725676215283,0.041283211469350475,0.042659318518328826,0.04210698351008332,0.0003070724222481969,0.041283191925181796,0.04265929832268786,2.8971844693954046e-05,2.112821623767141e-07,2.8405032258856593e-05,2.935186666748515e-05,2.8971844693954046e-05,2.112821623767141e-07,2.8405032258856593e-05,2.935186666748515e-05,-0.3165423728813562,21.858228631164785,-47.78,41.29,4.895078383273901,0.0018884818017430294,4.891483557406416,4.899032099101396,0.001975230603043424,0.0012175599881140392,0.0005620183658127578,0.004614160889538832,1.400633053881666e-07,8.137548862787067e-08,8.448765521223978e-08,3.6828539522713866e-07,-0.3159730117731599,0.0036876305713007427,-0.32209748606213673,-0.3101806412300121,0.8491840415810192,1.8598898495495133,-1.70135498046875,4.1259765625,33.8911111111111,0.014098419489387915,33.87,33.91,0.13559322033898305,-0.002332301341589155,0,1,0
0,0.04200845707624439,0.0003177692913629419,0.039219050895882956,0.043347372042818,0.04200843718873221,0.0003177691409256002,0.03921903232892271,0.04334735152144089,2.8904039582323106e-05,2.1864207387886247e-07,2.6984780645913764e-05,2.9825283871799426e-05,2.8904039582323106e-05,2.1864207387886247e-07,2.6984780645913764e-05,2.9825283871799426e-05,0.025491525423727995,34.21733035499423,-91.51,56.52,4.9043656990989355,0.003550410468858192,4.89712645202753,4.911225906684402,0.0018719073771170803,0.0021499716743992115,0.00014215818593593638,0.005418517238336919,0.0030742941420105543,0.010210693070346647,1.3686713041041743e-07,0.04428777934246389,-0.3078534782579593,0.000949677362768194,-0.3096808254370682,-0.3067837125405224,-0.09693401327204172,1.4450500663223373,-2.17132568359375,2.78778076171875,33.860526315789485,0.018771110000131715,33.84,33.89,0.13559322033898305,-0.002315789473684049,0,1,0
0,0.041975945630060595,9.818185367331991e-05,0.041283211469350475,0.042659318518328826,0.04197592575793987,9.818180719237467e-05,0.041283191925181796,0.04265929832268786,2.8881669988370396e-05,6.755430649806695e-08,2.8405032258856593e-05,2.935186666748515e-05,2.8881669988370396e-05,6.755430649806695e-08,2.8405032258856593e-05,2.935186666748515e-05,0.6259523809523805,23.120096191462828,-49.11,38.47,4.903419989173285,0.0034755925107935455,4.896574958609829,4.908330225501685,0.016579882402423734,0.008628036737164056,0.004299347382077561,0.03209145850371524,0.025585018764267133,0.043821665550339554,8.015555994916879e-07,0.1464089874261683,-0.323706502579788,0.010024547337055536,-0.3430121375460177,-0.3104701633677897,-0.022304620103859724,1.3432278304892036,-1.8798828125,2.89154052734375,33.83888888888888,0.018525924445035803,33.81,33.87,0.13605442176870747,-0.0032198142414860144,0,1,0
0,0.03971987897153158,0.002838117966556957,0.030274355077523685,0.04747569318975305,0.039719860167470845,0.0028381166229440365,0.03027434074513332,0.04747567071395907,2.7329376842251396e-05,1.9527752208507934e-06,2.083035698982817e-05,3.2665787097685084e-05,2.7329376842251396e-05,1.9527752208507934e-06,2.083035698982817e-05,3.2665787097685084e-05,-1.819220338983051,25.506038309380514,-57.37,41.87,4.873488205465695,0.03650300577270675,4.799682311240031,4.901708645908971,0.04418137022837172,0.012436037321379961,0.02506702109353102,0.06374786967146329,0.027788678134429413,0.07495673534950814,2.170135704471221e-08,0.30777048201631296,-0.3780201850539326,0.020068268773280794,-0.41138068543596357,-0.3461097735438705,-0.008627084585336538,2.119589660935998,-3.52935791015625,3.75518798828125,33.79631578947368,0.009296590385609713,33.79,33.81,0.13559322033898305,-0.001368421052631793,0,1,0
0,0.03839152706237579,0.00034827262525485565,0.03715489032241543,0.039219050895882956,0.038391508887179154,0.00034827246037671895,0.037154872732663616,0.03921903232892271,2.641540049477905e-05,2.396299803997894e-07,2.5564529032970932e-05,2.6984780645913764e-05,2.641540049477905e-05,2.396299803997894e-07,2.5564529032970932e-05,2.6984780645913764e-05,1.691220338983048,16.502820669091587,-27.71,52.68,4.795062338110985,0.007135231939817932,4.779960060814635,4.8088946524830165,0.032266827278572566,0.008011490110282633,0.020724349096399752,0.0431437575316704,0.03463412407054355,0.04438530006676809,2.242845862365783e-06,0.1486081855099355,-0.44132161804722403,0.01460398256045886,-0.46208183841074246,-0.41501855062141263,-0.12024806369138807,1.6737152456544646,-2.581787109375,2.63214111328125,33.8138888888889,0.022145701586662663,33.79,33.84,0.16271186440677965,0.003973168214654621,0,1,0
0,0.03828760428790106,0.00039969454314626903,0.036466836797926255,0.03853099737139378,0.03828758616190327,0.0003996943539241301,0.03646681953391059,0.03853097913016968,2.6343896131229835e-05,2.750109787410231e-07,2.5091111828656657e-05,2.651136344159949e-05,2.6343896131229835e-05,2.750109787410231e-07,2.5091111828656657e-05,2.651136344159949e-05,0.24877966101694945,13.342141464163687,-26.7,22.75,4.772721955009715,0.004232725157215656,4.765764523155221,4.780857872344983,0.038257545015738824,0.0024217450578952857,0.031835195368795983,0.04170994088334313,0.02361758097561352,0.03570155989048537,1.7594454251312897e-06,0.1284656516255097,-0.46863394833923117,0.0019668009470641245,-0.47039956475549627,-0.46355460597686393,-0.1324782932244803,1.6464256501276298,-2.10418701171875,3.38897705078125,33.937222222222225,0.033632913039256494,33.84,33.99,0.13559322033898305,0.005933952528379912,0,1,0
0,0.03819399156348077,0.0003621977806884692,0.03715489032241543,0.03853099737139378,0.038193973481800814,0.00036219760921792895,0.037154872732663616,0.03853097913016968,2.6279485627241508e-05,2.492112236030962e-07,2.5564529032970932e-05,2.651136344159949e-05,2.6279485627241508e-05,2.492112236030962e-07,2.5564529032970932e-05,2.651136344159949e-05,0.04517006802721118,13.507760724894734,-33.54,26.31,4.764317606543817,0.0028702588693861187,4.7576813531758555,4.767930652950746,0.0216109231018369,0.007142332125528256,0.009073825166106692,0.03028177027889882,0.007863744970908582,0.017345967533646284,7.997893353151042e-08,0.06256346460619555,-0.46027503919799545,0.00505085822211058,-0.4679562471143151,-0.45181110665425406,0.1218772710755814,2.009327735479044,-2.9296875,3.74298095703125,34.027894736842114,0.031718987733302735,33.99,34.07,0.16326530612244897,0.005543859649122601,0,1,0
0,0.03817302357824746,0.00034374393590217453,0.037842943846904606,0.03853099737139378,0.03817300550649409,0.00034374377316799575,0.03784292593141665,0.03853097913016968,2.6265058544760325e-05,2.3651400267967494e-07,2.6037946237285214e-05,2.651136344159949e-05,2.6265058544760325e-05,2.3651400267967494e-07,2.6037946237285214e-05,2.651136344159949e-05,-1.2609491525423733,12.64669042714838,-27.09,18.36,4.758276446241029,0.004722897608131751,4.745948108352662,4.765070894008514,0.0035578448749437517,0.001996158780103217,0.0015443741900722438,0.00804184511735341,0.0006123824368312335,0.00252349612029339,5.69804639305449e-08,0.011017023234575058,-0.44550787781375345,0.002844076127352803,-0.45093748249473364,-0.4417092674537314,0.25022520325104713,1.3717979977518155,-1.92718505859375,2.83966064453125,34.11222222222223,0.014740554623801704,34.09,34.13,0.13559322033898305,0.002641898864809084,0,1,0
0,0.03843270401075252,0.00024076857867457818,0.037842943846904606,0.03853099737139378,0.038432685816062045,0.00024076846469067115,0.03784292593141665,0.03853097913016968,2.6443732412411783e-05,1.6566151228927225e-07,2.6037946237285214e-05,2.651136344159949e-05,2.6443732412411783e-05,1.6566151228927225e-07,2.6037946237285214e-05,2.651136344159949e-05,0.6058644067796607,12.744127441798476,-26.43,20.65,4.761521924225779,0.00320479845313941,4.75478770001873,4.766342465583514,0.0011212936863408028,0.0004194671184052734,0.0004923135639098869,0.0018640770308137715,0.0006968888351184002,0.002954820583939819,8.196357630801954e-08,0.013233130578633383,-0.4414054279580735,0.0006131949889630554,-0.44293115296824825,-0.44082514250313837,0.4304265857630273,1.9723383531228764,-2.4566650390625,3.53851318359375,34.16421052631578,0.01695684599324925,34.13,34.18,0.13559322033898305,0.002859649122807009,0,1,0
0,0.03845661320658421,0.00021365224732969489,0.037842943846904606,0.03853099737139378,0.03845659500057469,0.00021365214618311666,0.03784292593141665,0.03853097913016968,2.6460183203295278e-05,1.470040426017431e-07,2.6037946237285214e-05,2.651136344159949e-05,2.6460183203295278e-05,1.470040426017431e-07,2.6037946237285214e-05,2.651136344159949e-05,0.31772881355932253,12.81026272614651,-27.3,20.55,4.755352035331738,0.003630744123930422,4.748075810312712,4.763509234848125,0.0015324388720237441,0.0005835009126369633,0.0007084253355416985,0.0023986814423986374,0.001227987405251318,0.005039611311859895,1.919383152276799e-07,0.02200672018916816,-0.44781884131970995,0.0030585924008372425,-0.45318437909153786,-0.4433025271345776,-0.03715938860460945,2.139101239659986,-3.1158447265625,4.06036376953125,34.21944444444445,0.03487632470159967,34.18,34.27,0.13559322033898305,0.005294117647058804,0,1,0
0,0.03855908118871993,0.0002646940132988567,0.037842943846904606,0.039219050895882956,0.038559062934200375,0.00026469388798824504,0.03784292593141665,0.03921903232892271,2.6530686592796023e-05,1.8212347632068797e-07,2.6037946237285214e-05,2.6984780645913764e-05,2.6530686592796023e-05,1.8212347632068797e-07,2.6037946237285214e-05,2.6984780645913764e-05,0.16942176870748266,13.444708263026515,-26.88,34.79,4.749284680849596,0.002065105568143746,4.7446492743720015,4.75330627968678,0.0074551463355411315,0.0029067440234301738,0.0022013547051163776,0.012277212304929352,0.010171354596241659,0.020603886640188987,7.356886429221721e-07,0.07298791996368574,-0.4599212327740497,0.0035208847039692854,-0.46530305716165943,-0.4538861548724554,-0.480400144591812,2.209070537959866,-3.33251953125,4.07562255859375,34.276315789473685,0.021572527928336305,34.23,34.31,0.13605442176870747,0.003157894736842038,0,1,0
0,0.03869013900290836,0.0002901239417480286,0.03853099737139378,0.039219050895882956,0.038690120686343824,0.00029012380439846,0.03853097913016968,0.03921903232892271,2.6620861298379673e-05,1.9962061165075858e-07,2.651136344159949e-05,2.6984780645913764e-05,2.6620861298379673e-05,1.9962061165075858e-07,2.651136344159949e-05,2.6984780645913764e-05,-0.3868135593220342,12.555632135467022,-26.58,23.58,4.740225219112538,0.0069665173935917315,4.723708556910557,4.748436447742914,0.007320126527428196,0.0033974996468635658,0.002525949906177053,0.012262555544067359,0.0010611381576481828,0.004374281452050121,4.9048295522324814e-08,0.019096762551024854,-0.46781903103718975,0.0008731346082891697,-0.46857295532718846,-0.4657614639863866,0.32109690496650056,1.8828312210048415,-2.59246826171875,3.72467041015625,34.343333333333334,0.026246692913370485,34.31,34.37,0.13559322033898305,0.0047058823529407675,0,1,0
0,0.03837758003147398,0.0003736312137260829,0.03715489032241543,0.039219050895882956,0.03837756186288009,0.00037363103684276314,0.037154872732663616,0.03921903232892271,2.6405804200096983e-05,2.5707803005307384e-07,2.5564529032970932e-05,2.6984780645913764e-05,2.6405804200096983e-05,2.5707803005307384e-07,2.5564529032970932e-05,2.6984780645913764e-05,-0.025627118644066933,13.324188207406227,-26.76,22.27,4.733400546858457,0.002889051685587588,4.7285812803977745,4.7373401249852565,0.0009470010619215749,0.0005887053578426428,0.0002677326070171706,0.002232586915729101,1.5427603863908292e-07,6.327870978417026e-08,8.05277524384973e-08,3.226821826095294e-07,-0.4667235259101106,0.0010097498359251417,-0.46824792562562,-0.46506658784724925,-0.2672522696063935,1.1468048245323812,-1.89361572265625,2.84576416015625,34.396666666666654,0.009428090415818758,34.39,34.41,0.13559322033898305,0.001486068111454813,0,1,0
0,0.03849823291784674,0.0002579875652175879,0.037842943846904606,0.039219050895882956,0.03849821469213378,0.0002579874430819224,0.03784292593141665,0.03921903232892271,2.6488819765203606e-05,1.7750908545063134e-07,2.6037946237285214e-05,2.6984780645913764e-05,2.6488819765203606e-05,1.7750908545063134e-07,2.6037946237285214e-05,2.6984780645913764e-05,-0.031322033898304596,13.204016515838326,-25.15,27.98,4.736808022065736,0.0017495982188212107,4.733031318313497,4.738913023445368,0.0009800297049353136,0.0010725370048773946,7.801087955596309e-05,0.0027163714957383206,0.0032912449091159297,0.008712443757532228,5.529193544545619e-07,0.03460845761685417,-0.46474236002538466,0.0004817562703306271,-0.465967225995232,-0.4642768074469029,0.7481785625145394,1.7599812364293481,-1.73492431640625,4.06646728515625,34.44368421052633,0.017232321624996324,34.41,34.49,0.16271186440677965,0.0014736842105264338,0,1,0
0,0.03979476915106779,0.0012690654138481825,0.03715489032241543,0.041283211469350475,0.0397947503115528,0.0012690648130512096,0.037154872732663616,0.041283191925181796,2.738090524544201e-05,8.73184104044799e-07,2.5564529032970932e-05,2.8405032258856593e-05,2.738090524544201e-05,8.73184104044799e-07,2.5564529032970932e-05,2.8405032258856593e-05,1.1421768707482993,13.797450568855446,-30.01,25.36,4.745334747467066,0.004986473178711674,4.736317454188552,4.754017893158609,0.013948345256034111,0.003986301554495024,0.004538246869509719,0.019497401501716208,0.011639398909339634,0.029573854715980903,6.905000386470128e-07,0.103765762655251,-0.4699937229804475,0.0024836064804799425,-0.4743323278187196,-0.4662851765245657,0.20286380209343013,2.8245632117970807,-3.89556884765625,6.3629150390625,34.46888888888889,0.01822357718539594,34.45,34.49,0.13605442176870747,0.0003921568627449247,0,1,0
0,0.0409531317380077,0.0003618770028067274,0.04059515794486131,0.04197126499383966,0.040953112350104286,0.0003618768314880524,0.04059513872642877,0.04197124512393483,2.817791995138149e-05,2.4899051145996516e-07,2.7931615054542318e-05,2.8878449463170872e-05,2.817791995138149e-05,2.4899051145996516e-07,2.7931615054542318e-05,2.8878449463170872e-05,-0.6896949152542372,12.689317310447725,-28.08,24.36,4.725197140916548,0.006164950784365647,4.715071250280425,4.736998559646227,0.004374634886523993,0.002439331441992607,0.0013283608495036358,0.009573038349155046,0.000289929336651897,0.0012283960257193716,5.3793879597335836e-08,0.005501571866542737,-0.4799707356548389,0.0030243837165491675,-0.48475618075286464,-0.47490044858811997,-0.5259180187291602,2.274090642885514,-3.93524169921875,3.73687744140625,34.478421052631596,0.00987455949436666,34.47,34.49,0.16271186440677965,-0.0012631578947370394,0,1,0
0,0.04064196430707148,0.0003072865306489685,0.03990710442037213,0.041283211469350475,0.0406419450664801,0.0003072863851743423,0.03990708552767574,0.041283191925181796,2.7963820306536432e-05,2.114293802524619e-07,2.745819785022804e-05,2.8405032258856593e-05,2.7963820306536432e-05,2.114293802524619e-07,2.745819785022804e-05,2.8405032258856593e-05,-0.1944406779661018,9.96676777804099,-21.84,19.37,4.708865788932026,0.004471962616084273,4.702377230315887,4.7175069757365335,0.0005260752341460542,0.00029063352258923176,0.00018187028778828769,0.0011740227641225643,0.0005256330374816198,0.00215934145635294,5.3766032188928836e-08,0.009428810775474908,-0.48842502160014767,0.0017481000135504796,-0.4908863983767566,-0.48522381542462223,0.035773172831261635,2.2404470499661,-2.6763916015625,4.13665771484375,34.483333333333334,0.009428090415822104,34.47,34.49,0.16271186440677965,0.0014860681114553407,0,1,0
0,0.04067472876061858,0.0016320191185979923,0.036466836797926255,0.05298012138566645,0.04067470950451589,0.001632018345972613,0.03646681953391059,0.05298009630398331,2.7986363982932376e-05,1.1229154433700855e-06,2.5091111828656657e-05,3.64531247321993e-05,2.7986363982932376e-05,1.1229154433700855e-06,2.5091111828656657e-05,3.64531247321993e-05,-0.0050340136054422505,12.199447816998088,-24.7,21.39,4.708436202190999,0.002610183614755232,4.703041064584485,4.711892544551274,0.0006163881809175732,0.00024932459814209915,0.00023257226221428458,0.0009593402945257435,3.048821249749337e-07,1.726411466970556e-07,1.2027368525777127e-07,7.249459492153498e-07,-0.49134512370475275,0.0003259398486273446,-0.4916810969908233,-0.49053693190465464,0.8878362385865772,2.5559194487875105,-2.4993896484375,5.58929443359375,34.52555555555554,0.014989708403590866,34.5,34.55,0.13605442176870747,0.002394220846233164,0,1,0
0,0.04117163522213603,0.0019868632135554795,0.03715489032241543,0.04747569318975305,0.04117161573078942,0.0019868622729409193,0.037154872732663616,0.04747567071395907,2.8328261901400232e-05,1.3670669423787158e-06,2.5564529032970932e-05,3.2665787097685084e-05,2.8328261901400232e-05,1.3670669423787158e-06,2.5564529032970932e-05,3.2665787097685084e-05,-0.4856949152542371,40.22245670221002,-121.79,135.1,4.780239051396742,0.0367575617688288,4.706052433509819,4.830751138233733,0.06369922542636143,0.03186124670598547,0.0002057791137009409,0.10542281376942757,0.1022876308829239,0.16535407518370906,3.8863782125808655e-07,0.6027171421939255,-0.4867234979058317,0.0024355844349886386,-0.49027834681117505,-0.4823925630901187,-0.9215882634998255,2.1127758859870323,-3.717041015625,4.547119140625,34.56473684210528,0.01697317420694697,34.55,34.59,0.21694915254237288,0.0011228070175440352,0,1,0
0,0.04139554673865484,0.0030125921571232893,0.03096240860201286,0.05091596081219893,0.04139552714130475,0.0030125907309113452,0.03096239394388635,0.05091593670772422,2.84823248636426e-05,2.0728226889372805e-06,2.1303774194142445e-05,3.5032873119256466e-05,2.84823248636426e-05,2.0728226889372805e-06,2.1303774194142445e-05,3.5032873119256466e-05,-0.8971186440677952,46.17852883016227,-141.5,112.12,4.84428308473099,0.02794370217539632,4.797060377159495,4.916827616350085,0.11422080033396281,0.006298558765123491,0.1057744214016111,0.1264705208066352,0.07039983309591645,0.15757917794621942,3.0919758309266854e-08,0.5769936599316305,-0.4772018531947401,0.002785661517593158,-0.48184484795159943,-0.47279460042912935,0.6371200140166867,1.7452479564709382,-2.50091552734375,3.72161865234375,34.57777777777779,0.009749960430437216,34.57,34.59,0.16271186440677965,-0.000928792569659588,0,1,0
0,0.04260353039472154,0.0025800624993126023,0.029586301553034506,0.04678763966526387,0.0426035102254917,0.002580061277867498,0.029586287546380288,0.04678761751520604,2.9313481488757e-05,1.7752194152155614e-06,2.035693978551389e-05,3.219236989337081e-05,2.9313481488757e-05,1.7752194152155614e-06,2.035693978551389e-05,3.219236989337081e-05,7.599084745762709,75.16838192707881,-186.74,187.12,4.808616357800658,0.0245426870431316,4.784052685394058,4.875117834195541,0.07417609458471126,0.015593170898306028,0.05080327823452416,0.09847532244979056,0.0390573626166767,0.11775846658492314,4.785690332909098e-08,0.498433239535657,-0.469222370228069,0.001664186364353609,-0.47234048872831175,-0.4669034820347949,-0.251384763504672,1.6502278690507892,-2.28729248046875,3.51409912109375,34.51736842105264,0.03625089548994195,34.47,34.57,0.13559322033898305,-0.006210526315789447,0,1,0
0,0.041769997636336015,0.0023593285341017307,0.036466836797926255,0.06398897777749324,0.041769977861714595,0.0023593274171558043,0.03646681953391059,0.06398894748403179,2.8739966879595912e-05,1.6233427762797766e-06,2.5091111828656657e-05,4.402780000122772e-05,2.8739966879595912e-05,1.6233427762797766e-06,2.5091111828656657e-05,4.402780000122772e-05,-6.882448979591832,28.849345153247523,-143.31,94.09,4.774345136509663,0.01238352750444133,4.748092381832332,4.785276318940613,0.037343491933774495,0.009816980911325079,0.018254530145909643,0.04781521085044605,0.014840830787680762,0.04161841296448099,5.880569431404581e-08,0.14006651980981422,-0.4661446256623163,0.0002410231525586844,-0.46674587947999585,-0.465923640441243,0.20765063188803698,2.16041601074526,-3.11126708984375,3.42864990234375,34.44777777777779,0.011331154474650855,34.43,34.47,0.16326530612244897,-0.0011558307533539192,0,1,0
0,0.03988838187548819,0.0010462452250204913,0.03715489032241543,0.041283211469350475,0.03988836299165519,0.0010462447297103518,0.037154872732663616,0.041283191925181796,2.744531574943037e-05,7.198720329557072e-07,2.5564529032970932e-05,2.8405032258856593e-05,2.744531574943037e-05,7.198720329557072e-07,2.5564529032970932e-05,2.8405032258856593e-05,0.5270847457627107,15.395230814777538,-65.96,36.52,4.741429152936116,0.003202430877786207,4.737576684700136,4.747776212394638,0.008713577880127466,0.003372490177656163,0.004634298427610268,0.016210870220162137,0.005527346200883534,0.015169443539420652,1.4944192666677125e-07,0.06277464113828532,-0.46753808733530894,0.0009491350721245914,-0.4692644614585477,-0.4662146316559717,-0.04832265394792959,1.788387687877651,-2.94342041015625,3.6163330078125,34.3721052631579,0.018800601157358845,34.34,34.39,0.13559322033898305,-0.002491228070175491,0,1,0
0,0.036727181374759964,0.0003869585508267673,0.03577878327343708,0.037842943846904606,0.036727163987492824,0.0003869583676340624,0.03577876633515756,0.03784292593141665,2.527024266272152e-05,2.662479426348674e-07,2.461769462434238e-05,2.6037946237285214e-05,2.527024266272152e-05,2.662479426348674e-07,2.461769462434238e-05,2.6037946237285214e-05,-0.04142372881355881,22.90737526131763,-61.65,71.43,4.741541952229786,0.00358367266198397,4.736728668525492,4.7488559462319415,0.011732177083393117,0.00206490124140244,0.00894861554754657,0.015288385628759091,0.008065352483002032,0.02060597644107404,9.235515942562778e-07,0.07763381577684347,-0.47134301828665887,0.0010917317547354342,-0.4730190825891451,-0.4694890785772569,-0.22310025566969827,1.6861865274432104,-2.84423828125,2.98309326171875,34.309999999999995,0.03055050463303725,34.25,34.37,0.16271186440677965,-0.005407636738905739,0,1,0
0,0.036466836797926214,4.163336342344337e-17,0.036466836797926255,0.036466836797926255,0.03646681953391059,0.0,0.03646681953391059,0.03646681953391059,2.5091111828656663e-05,6.776263578034403e-21,2.5091111828656657e-05,2.5091111828656657e-05,2.5091111828656663e-05,6.776263578034403e-21,2.5091111828656657e-05,2.5091111828656657e-05,-0.9231186440677956,15.168758720525451,-34.71,22.08,4.730024414505491,0.00712178678767797,4.713164311862608,4.737606938392539,0.004354905031473771,0.0024502511775390972,0.0013246830008677862,0.009189807521095644,1.7726628922729026e-07,2.323061610918273e-07,4.252795472725612e-08,1.0010534661764048e-06,-0.47385502544414304,0.00028651068127215866,-0.47409339338098766,-0.47317307270804954,0.135247884165083,1.554058765623317,-2.25372314453125,3.61785888671875,34.25888888888888,0.009938079900000616,34.25,34.27,0.10847457627118644,0.0006604747162023736,0,1,0
0,0.03676639751607112,0.00034114100319753847,0.036466836797926255,0.03715489032241543,0.036766380110238514,0.0003411408416956323,0.03646681953391059,0.037154872732663616,2.5297225441419397e-05,2.347230473539804e-07,2.5091111828656657e-05,2.5564529032970932e-05,2.5297225441419397e-05,2.347230473539804e-07,2.5091111828656657e-05,2.5564529032970932e-05,1.5446598639455793,14.472784348185021,-30.34,24.24,4.727662205362532,0.0030081565541420045,4.720887186080507,4.732751818074959,0.001966216278579337,0.0013244519652089413,0.00046608120093391667,0.003830290397429317,0.00207709236528219,0.008117963512004334,1.5960821194913044e-07,0.03639853796943546,-0.47410034333084594,0.00022838886368352945,-0.4747113088607112,-0.4739201864713703,0.1823787245639535,1.7107056792965023,-2.288818359375,3.01361083984375,34.247894736842106,0.014355980733671569,34.23,34.27,0.13605442176870747,-3.50877192982511e-05,0,1,0
0,0.0374896190640589,0.0011183165046599627,0.03577878327343708,0.03990710442037213,0.03748960131584076,0.001118315975230066,0.03577876633515756,0.03990708552767574,2.579484010534005e-05,7.694608839736608e-07,2.461769462434238e-05,2.745819785022804e-05,2.579484010534005e-05,7.694608839736608e-07,2.461769462434238e-05,2.745819785022804e-05,-1.4684067796610158,15.159732562283347,-35.49,20.18,4.729588875013921,0.004999198746881088,4.719074671236792,4.737991201497267,0.0066702221597418525,0.0023100094202155833,0.0029654834364847235,0.00999346935801174,0.005850946144842234,0.018553117620161496,8.858641270537149e-08,0.07782722643805218,-0.47786789427645904,0.0022652372552829972,-0.48221272413479255,-0.4748882004452172,1.3113639090618212,2.670277680196879,-1.62506103515625,7.1807861328125,34.225555555555545,0.015713484026367054,34.21,34.25,0.13559322033898305,0.0008255933952530844,0,1,0
0,0.03932670552896641,0.0003907139883091704,0.03853099737139378,0.04059515794486131,0.039326686911040576,0.00039071380333857686,0.03853097913016968,0.04059513872642877,2.7058852725500333e-05,2.688318821840697e-07,2.651136344159949e-05,2.7931615054542318e-05,2.7058852725500333e-05,2.688318821840697e-07,2.651136344159949e-05,2.7931615054542318e-05,2.2609830508474564,14.432596418267716,-32.75,32.63,4.725007516367947,0.019722920537966048,4.710200552505119,4.774564016619399,0.014579170110266026,0.01697247443956212,0.0013882545375731327,0.043954198591497594,0.024939327094226655,0.07776493726162421,5.8303863847974924e-08,0.3219378279862249,-0.48932855133230785,0.0038895095783702187,-0.4954709343691434,-0.4828900821168467,-0.914256093519793,2.5039164828403973,-4.10614013671875,3.48968505859375,34.21315789473684,0.007292845505551717,34.21,34.23,0.13559322033898305,0.0008421052631577272,0,1,0
0,0.03933992516369873,0.00042861757148817656,0.03853099737139378,0.04059515794486131,0.03933990653951449,0.00042861736857338715,0.03853097913016968,0.04059513872642877,2.706794853315814e-05,2.949115514880251e-07,2.651136344159949e-05,2.7931615054542318e-05,2.706794853315814e-05,2.949115514880251e-07,2.651136344159949e-05,2.7931615054542318e-05,-0.7796610169491521,15.840221018628142,-38.11,40.62,4.731554377278319,0.008138688439366154,4.715105037952838,4.74721586184165,0.03039038804586742,0.004784955372899452,0.022109479630675152,0.03927677843206921,0.014616191657945532,0.05183725368654452,8.517014926656685e-08,0.22640622297921464,-0.4987239337540062,0.0011608422055841858,-0.4998067377624936,-0.496037985735631,-0.7432905073458831,1.768249410415939,-3.56597900390625,2.642822265625,34.22,0.00999999999999801,34.21,34.23,0.08135593220338982,0.0003095975232197527,0,1,0
0,0.03950456970536498,0.00033901509200036096,0.039219050895882956,0.03990710442037213,0.039504551003235217,0.00033901493150489666,0.03921903232892271,0.03990708552767574,2.7181232683078174e-05,2.332603080469837e-07,2.6984780645913764e-05,2.745819785022804e-05,2.7181232683078174e-05,2.332603080469837e-07,2.6984780645913764e-05,2.745819785022804e-05,0.016836734693877052,21.397177921093938,-44.13,70.96,4.71629233263897,0.006801613386546572,4.699756081062229,4.729858338735855,0.011810451158612045,0.003120295171607555,0.006878038876983154,0.019826360844922737,0.004193912632900922,0.0102046204193193,7.100588866881807e-08,0.03317600506445953,-0.4944214134690109,0.003040710848144306,-0.49887485238188894,-0.4891761398192488,0.900829226471657,1.7730163309141327,-1.7852783203125,3.96575927734375,34.20368421052632,0.012230473724865994,34.18,34.21,0.13605442176870747,0.00010526315789474083,0,1,0
0,0.039167563897451886,0.000228250014722464,0.03853099737139378,0.03990710442037213,0.03916754535486639,0.00022824990666505667,0.03853097913016968,0.03990708552767574,2.694935486872013e-05,1.5704807839597275e-07,2.651136344159949e-05,2.745819785022804e-05,2.694935486872013e-05,1.5704807839597275e-07,2.651136344159949e-05,2.745819785022804e-05,-0.10444067796610275,15.022129132390308,-34.09,24.77,4.716123179392247,0.0019998199113622547,4.712664007312314,4.7203797164137695,0.0026754414366705424,0.0016254674499288915,0.0007697078041186121,0.006152518058301357,1.5514491660557211e-07,1.1114430415813585e-07,7.923845299351306e-08,5.471378798863752e-07,-0.4852859103982584,0.0015595021559368107,-0.4885938958409851,-0.48375839154964584,0.2511654438678056,1.831900256101244,-2.53753662109375,3.32489013671875,34.21222222222222,0.019309052441090754,34.18,34.23,0.13559322033898305,0.00041279669762651287,0,1,0
0,0.039093527617766834,0.0002657266275033035,0.03853099737139378,0.039219050895882956,0.0390935091102313,0.0002657265017038352,0.03853097913016968,0.03921903232892271,2.689841399377531e-05,1.8283396949077584e-07,2.651136344159949e-05,2.6984780645913764e-05,2.689841399377531e-05,1.8283396949077584e-07,2.651136344159949e-05,2.6984780645913764e-05,-0.7496610169491528,12.46962804633338,-30.92,20.67,4.712108942070924,0.003761968767206229,4.703131960339347,4.718507157778609,0.0017637772975717966,0.000865203501020594,0.0005996112651433757,0.0029618972001047945,0.0018582763720509962,0.005838721069882921,4.526182437111781e-07,0.024367186662062758,-0.48891596883242294,0.003443595104673951,-0.4952308695258152,-0.484256553450977,-0.5267596267004246,1.6930281102051457,-2.60162353515625,3.009033203125,34.207777777777785,0.016850834320113806,34.18,34.23,0.10847457627118644,0.0010732714138287692,0,1,0
0,0.038853961270643854,0.0003433813753583125,0.03853099737139378,0.039219050895882956,0.03885394287652313,0.0003433812127957761,0.03853097913016968,0.03921903232892271,2.673357968035925e-05,2.3626454185582823e-07,2.651136344159949e-05,2.6984780645913764e-05,2.673357968035925e-05,2.3626454185582823e-07,2.651136344159949e-05,2.6984780645913764e-05,0.041627118644066846,10.9085851152609,-25.06,18.14,4.702253972037501,0.002930719063883543,4.696755063329211,4.70820693747653,0.006843211721400157,0.0030921236571365748,0.0015718209451585723,0.010814462330757928,0.007996168983332766,0.0202040083489503,1.2279510158696993e-07,0.07309301815827296,-0.5036327390888852,0.004318705620493454,-0.5100118667570204,-0.4961144110480311,0.14894783644759033,1.6923354735933112,-2.21099853515625,3.57513427734375,34.230000000000004,0.012977713690460729,34.21,34.25,0.13559322033898305,0.0016842105263156785,0,1,0
0,0.038919490177738124,0.0003411410031975388,0.03853099737139378,0.039219050895882956,0.038919471752594845,0.0003411408416956324,0.03853097913016968,0.03921903232892271,2.6778667033151096e-05,2.3472304735398025e-07,2.651136344159949e-05,2.6984780645913764e-05,2.6778667033151096e-05,2.3472304735398025e-07,2.651136344159949e-05,2.6984780645913764e-05,0.09353741496598687,10.080264398508515,-24.23,18.83,4.689680522719453,0.00659214595279675,4.677835474542689,4.702935332901095,0.004195903551410131,0.002402408451106611,0.001260739028199068,0.009033240090860244,1.0072832292818628e-07,1.9924879632574302e-08,6.506166982944706e-08,1.3554462423293057e-07,-0.51194745784356,0.0005500683234057654,-0.512387815859111,-0.510471000297243,0.4572264905602997,1.5513778046865534,-1.82037353515625,2.94036865234375,34.24999999999999,0.014907119850000927,34.23,34.27,0.13605442176870747,0.0013622291021673958,0,1,0
0,0.03877274590702519,0.00032847157792013226,0.03853099737139378,0.039219050895882956,0.03877272755135317,0.00032847142241614605,0.03853097913016968,0.03921903232892271,2.6677699216088284e-05,2.2600581289238674e-07,2.651136344159949e-05,2.6984780645913764e-05,2.6677699216088284e-05,2.2600581289238674e-07,2.651136344159949e-05,2.6984780645913764e-05,-0.704542372881356,9.505585924793287,-21.43,14.29,4.6838288411516755,0.003611802683300838,4.676543651895359,4.690904263671112,0.0004597229662777437,0.0002896158765133772,0.00013301300413879317,0.0011130669444322037,0.0006302279329113795,0.0026730793448287767,9.153900716769858e-08,0.011971143099052572,-0.5127687284762901,0.001108303756535891,-0.5155241781838276,-0.5118726325505139,-0.16575096262891595,1.0063355692180815,-1.79290771484375,1.95770263671875,34.28263157894736,0.016170833153406908,34.27,34.31,0.13559322033898305,0.0020350877192980153,0,1,0
0,0.03878843236354965,0.00033295086498368975,0.03853099737139378,0.039219050895882956,0.0387884140004514,0.00033295070735913274,0.03853097913016968,0.03921903232892271,2.6688492327567426e-05,2.29087799225535e-07,2.651136344159949e-05,2.6984780645913764e-05,2.6688492327567426e-05,2.29087799225535e-07,2.651136344159949e-05,2.6984780645913764e-05,0.8787796610169497,9.927325609901695,-18.78,22.04,4.679470089573526,0.002637697678672017,4.674519231021202,4.684065983345071,0.008281918375638624,0.006583929784101727,0.0006005025786415626,0.023024226358224657,0.01774264731300043,0.03847249102053295,1.0252230564500309e-06,0.14213148423350225,-0.5266189118745155,0.007621147292740584,-0.5409045939467472,-0.5162116530509985,-0.09076967396205012,1.4931075419093682,-2.15911865234375,3.204345703125,34.29666666666666,0.009428090415822106,34.29,34.31,0.13559322033898305,0.0008255933952529671,0,1,0
0,0.03866205518558226,0.00027018260548070246,0.03853099737139378,0.039219050895882956,0.03866203688231308,0.00027018247757169914,0.03853097913016968,0.03921903232892271,2.6601538147183182e-05,1.858999179402262e-07,2.651136344159949e-05,2.6984780645913764e-05,2.6601538147183182e-05,1.858999179402262e-07,2.651136344159949e-05,2.6984780645913764e-05,0.501326530612245,10.325666288174258,-22.07,19.25,4.678094345020664,0.0023322554951674514,4.6729285823268505,4.682251598297273,0.04619491081551403,0.015181334910030863,0.024103576398006407,0.07095404910251232,0.06139314533343822,0.07048184281871794,1.0946835763414597e-06,0.21063286862094,-0.565569412621299,0.014668441629107349,-0.5910158670427956,-0.5430993796414532,0.014051432645054669,1.1798813615187305,-1.82037353515625,2.44903564453125,34.32777777777777,0.027397395568750166,34.29,34.37,0.13605442176870747,0.004623323013415677,0,1,0
0,0.037773208692395505,0.002941802470428282,0.028210194504056162,0.0488518002387314,0.037773190809921454,0.0029418010777293724,0.02821018114887423,0.04885177711146513,2.5989964763874968e-05,2.0241156416268024e-06,1.941010537688534e-05,3.3612621506313634e-05,2.5989964763874968e-05,2.0241156416268024e-06,1.941010537688534e-05,3.3612621506313634e-05,-1.463694915254237,30.91915164668965,-93.36,113.98,4.6744233437632445,0.04398815546309294,4.583459418262127,4.7582545290928,0.10656215092348006,0.026569895323492326,0.07390065793047393,0.15024016151779476,0.07070326246298848,0.18392994479433267,2.1012375839291053e-08,0.7680335341838589,-0.6276862104042078,0.020923245102331164,-0.6628832432748333,-0.5943924671334511,0.24368390256062927,1.7723070583384906,-3.1158447265625,3.01361083984375,34.38894736842104,0.012093816097974735,34.37,34.41,0.13559322033898305,0.0002105263157892074,0,1,0
0,0.036363862801063865,0.0002704257577172369,0.03577878327343708,0.03715489032241543,0.03636384558579792,0.00027042562969312146,0.03577876633515756,0.037154872732663616,2.5020260274269487e-05,1.8606721953515385e-07,2.461769462434238e-05,2.5564529032970932e-05,2.5020260274269487e-05,1.8606721953515385e-07,2.461769462434238e-05,2.5564529032970932e-05,1.10549152542373,13.162820173803722,-25.13,33.4,4.553160907864883,0.019850018052989856,4.52639619408023,4.589919661906997,0.06341134852801722,0.003895795147691822,0.056214926444699775,0.06990553542497747,0.05206394625035623,0.08178550921166779,3.0570810019003858e-06,0.2699266556884845,-0.7002827696301264,0.019921434445929444,-0.7318945347570887,-0.6669281922718392,-0.10958963619638147,1.822857544781092,-2.32696533203125,3.668212890625,34.417777777777765,0.017812466157648168,34.39,34.45,0.13559322033898305,-0.00101135190918476,0,1,0
0,0.036355260550711706,0.0003303088284026748,0.03577878327343708,0.03715489032241543,0.03635524333951824,0.0003303086720289027,0.03577876633515756,0.037154872732663616,2.501434147120028e-05,2.272699383653518e-07,2.461769462434238e-05,2.5564529032970932e-05,2.501434147120028e-05,2.272699383653518e-07,2.461769462434238e-05,2.5564529032970932e-05,-0.2694237288135595,9.50313457689386,-21.56,15.39,4.498000194630056,0.010570776869941892,4.483941093640937,4.519581121855497,0.07056642909185969,0.0048993851713057465,0.06459126125728745,0.08071337984354196,0.05658301350346394,0.051352108409481116,1.7172714113389276e-05,0.1751196694242252,-0.7595975130403556,0.013208980596534955,-0.7781156399748044,-0.735247484779892,0.3553570352180424,1.4685327095982748,-2.7252197265625,2.92816162109375,34.406842105263145,0.014886458551295105,34.39,34.43,0.13559322033898305,-0.000280701754385934,0,1,0
0,0.039092673717915506,0.0054739315191397854,0.020641605734675238,0.05573233548362315,0.03909265521078441,0.005473928927688272,0.020641595962590898,0.05573230909899543,2.689782646552952e-05,3.7663543084426593e-06,1.4202516129428297e-05,3.8346793549456406e-05,2.689782646552952e-05,3.7663543084426593e-06,1.4202516129428297e-05,3.8346793549456406e-05,0.04329931972789158,23.648436005559585,-72.27,104.27,4.582962380825241,0.09234710755623765,4.4773978652446935,4.778981771830222,0.17500606935334556,0.07851016435212356,0.07235909751170227,0.2814265010383448,0.1741201158699519,0.3073117096643254,1.673029093041123e-08,0.889686247113957,-0.7830695201789003,0.0015935176709068952,-0.7847906371158571,-0.7793489040826682,0.26884765246369996,1.7841057562552591,-3.36151123046875,3.5888671875,34.42999999999999,7.105427357601002e-15,34.43,34.43,0.21768707482993196,0.0,0,1,0
0,0.04310397895932522,0.0016907271809044287,0.03577878327343708,0.04816374671424223,0.04310395855317458,0.0016907263804856612,0.03577876633515756,0.0481637239127121,2.9657816561429788e-05,1.1633096943092915e-06,2.461769462434238e-05,3.313920430199936e-05,2.9657816561429788e-05,1.1633096943092915e-06,2.461769462434238e-05,3.313920430199936e-05,0.7794237288135585,25.477998830631776,-63.8,75.87,4.603160548763239,0.008489011139521238,4.583611726569868,4.615313604463012,0.17424344388105037,0.007059780207792801,0.1611994614389102,0.1865575248856366,0.12928622853016242,0.18000883187194927,8.28319552059753e-07,0.75811709270589,-0.7634666500335626,0.012144525538720103,-0.7800921342745616,-0.7406018719682955,-0.6900782620640605,1.5697659688588053,-3.70330810546875,2.01263427734375,34.401578947368414,0.014960705687948599,34.37,34.43,0.16271186440677965,-0.002491228070175267,0,1,0
0,0.04252449721961137,0.0040852157932914695,0.025457980406099465,0.05022790728770975,0.04252447708779708,0.004085213859281406,0.02545796835386211,0.050227883508971186,2.9259102485558697e-05,2.810844463468781e-06,1.7516436559628233e-05,3.455945591494219e-05,2.9259102485558697e-05,2.810844463468781e-06,1.7516436559628233e-05,3.455945591494219e-05,-2.0159661016949166,108.5783999822742,-313.46,267.91,4.6462308096720895,0.030227195010723185,4.590110930234352,4.695747604385614,0.1573743682037793,0.04357824943131391,0.08167312112412395,0.2173838988998683,0.08234569471238949,0.25634322576696866,2.0097033237576056e-07,1.122616105214954,-0.7066287564454744,0.01909085331546725,-0.7373114842828039,-0.6753106384048788,1.40480848709471,2.2108632554069727,-2.056884765625,6.09283447265625,34.37444444444444,0.008314794192832282,34.37,34.39,0.16271186440677965,0.0,0,1,0
0,0.042649957245886744,0.0025844318436409686,0.030274355077523685,0.04816374671424223,0.04264993705467765,0.00258443062012734,0.03027434074513332,0.0481637239127121,2.934542561708633e-05,1.778225755133893e-06,2.083035698982817e-05,3.313920430199936e-05,2.934542561708633e-05,1.778225755133893e-06,2.083035698982817e-05,3.313920430199936e-05,1.9056949152542364,81.49463578130319,-260.4,227.52,4.610550267005533,0.019006640816621675,4.587289446607077,4.662008574053992,0.06349326723170731,0.02248712653514041,0.02601575857992077,0.09222644921687813,0.029738761675464784,0.0807079064745488,5.0784672023240773e-08,0.3359866845847541,-0.646780420236529,0.0136905379796599,-0.6717679634327961,-0.6277592776387522,-0.9883008312446673,1.5362990878120204,-3.2623291015625,3.32183837890625,34.343333333333334,0.01699673171197535,34.33,34.37,0.10847457627118644,-0.00185758513931911,0,1,0
0,0.04272016678920203,0.002232688008925664,0.034402676224458736,0.05298012138566645,0.04272014656475446,0.002232686951933499,0.0344026599376515,0.05298009630398331,2.9393733495077567e-05,1.5362073990919965e-06,2.367086021571383e-05,3.64531247321993e-05,2.9393733495077567e-05,1.5362073990919965e-06,2.367086021571383e-05,3.64531247321993e-05,3.385306122448979,47.67735630063662,-106.46,149.24,4.591945977660906,0.0115456222080946,4.5782761639541345,4.612387756083067,0.025934472816865492,0.00792287682151021,0.01241534116302315,0.03702647440989745,0.03209156011298229,0.08243368984500099,1.0707415343258475e-07,0.3180175855297179,-0.6251323347162913,0.0017765899272186379,-0.6291819457945391,-0.6232037888725912,0.25880136415939925,2.1819416445381914,-3.05328369140625,5.14373779296875,34.304736842105264,0.019295055557707653,34.27,34.33,0.08163265306122448,-0.002947368421052419,0,1,0
0,0.04217582144706607,0.0009411691426258286,0.03990710442037213,0.04472347909179635,0.04217580148032087,0.0009411686970604844,0.03990708552767574,0.04472345791894695,2.9019195118507595e-05,6.475741325786886e-07,2.745819785022804e-05,3.0772118280427976e-05,2.9019195118507595e-05,6.475741325786886e-07,2.745819785022804e-05,3.0772118280427976e-05,-4.735559322033895,36.40819634310858,-128.88,86.82,4.652912656179199,0.037989755792152566,4.603752545242533,4.71884070784865,0.09442723203844026,0.029579276219624265,0.04048977834351787,0.13743458129009828,0.08434552674056228,0.18851828495827844,3.290289063428986e-08,0.7138729844347105,-0.6363467178850483,0.0032496934168299556,-0.6398896505645844,-0.6300583794833939,0.18375880815137294,2.14047083945423,-2.9876708984375,4.876708984375,34.256666666666675,0.013333333333335416,34.23,34.27,0.13559322033898305,-0.0023116615067083077,0,1,0
0,0.04189169417808234,0.0005647493589199902,0.04059515794486131,0.042659318518328826,0.04189167434584763,0.0005647490915581178,0.04059513872642877,0.04265929832268786,2.882370053478081e-05,3.885774189394312e-07,2.7931615054542318e-05,2.935186666748515e-05,2.882370053478081e-05,3.885774189394312e-07,2.7931615054542318e-05,2.935186666748515e-05,1.0396271186440689,19.78588581509753,-47.26,30.73,4.622093457918951,0.005499009772033042,4.607972456706153,4.628785011696615,0.056407247226597755,0.01099854846358777,0.04081320179990468,0.07196650050316777,0.027374810678233757,0.04666936297983433,3.996266406680604e-07,0.15733290964529167,-0.6285530671008143,0.008732108837946862,-0.6395095009386739,-0.6119002954572971,-0.6448679467288791,2.418428090399201,-3.23944091796875,5.0323486328125,34.21894736842105,0.01860807318911925,34.18,34.25,0.10847457627118644,-0.0026140350877191646,0,1,0
0,0.04151566198438054,0.0005630486986907008,0.03990710442037213,0.043347372042818,0.0415156423301659,0.00056304843213395,0.03990708552767574,0.04334735152144089,2.8564970503557407e-05,3.874072747826427e-07,2.745819785022804e-05,2.9825283871799426e-05,2.8564970503557407e-05,3.874072747826427e-07,2.745819785022804e-05,2.9825283871799426e-05,1.8505084745762714,18.04514968624757,-42.5,41.9,4.624582550386027,0.0032195217830726084,4.620059126879277,4.63248177304003,0.020209197818990863,0.009472277484815975,0.007223600496642204,0.03848394141442772,0.001837922653012281,0.007567992325798435,8.812164639659947e-08,0.03304154402513726,-0.5898691357520552,0.011647913869845558,-0.6095637391711338,-0.5719913839530053,0.8231588819919815,3.010702182367836,-3.61785888671875,6.890869140625,34.16277777777777,0.017258027296676068,34.13,34.18,0.13559322033898305,-0.0029824561403508486,0,1,0
0,0.04201807135604972,0.000390377407639397,0.04059515794486131,0.043347372042818,0.04201805146398599,0.000390377222828149,0.04059513872642877,0.04334735152144089,2.8910654715165118e-05,2.686002968872324e-07,2.7931615054542318e-05,2.9825283871799426e-05,2.8910654715165118e-05,2.686002968872324e-07,2.7931615054542318e-05,2.9825283871799426e-05,-4.623775510204077,34.81037030316513,-72.3,63.29,4.636371170833828,0.013935324422525501,4.618191894075131,4.669200193616,0.006761406231996075,0.0020811044347329973,0.003444055769600223,0.00993995170674266,0.004671475143966074,0.019818073786452724,3.643205795378357e-08,0.08875244130992938,-0.5639498777768619,0.0025052980879448528,-0.570376224633618,-0.5616928630414959,-0.33882602425508723,3.3719038351033004,-4.96826171875,5.328369140625,34.125789473684215,0.012275688199674055,34.09,34.13,0.13605442176870747,-0.0011929824561403254,0,1,0
0,0.041610856004821464,0.00034363648785662497,0.041283211469350475,0.04197126499383966,0.04161083630554029,0.00034363632517331425,0.041283191925181796,0.04197124512393483,2.8630469022815823e-05,2.3644007274323432e-07,2.8405032258856593e-05,2.8878449463170872e-05,2.8630469022815823e-05,2.3644007274323432e-07,2.8405032258856593e-05,2.8878449463170872e-05,4.561966101694921,23.349777544736494,-42.98,71.91,4.631420208181044,0.0023087175416498275,4.627732026661374,4.635791974880501,0.009134201392785998,0.00422481293289621,0.0034902027521278205,0.01601571607038763,0.01445435181780047,0.02639116068918929,1.0410830649787428e-06,0.0864242829128552,-0.5724315796050228,0.004963342437517537,-0.580491209538019,-0.5646948770930548,0.21268233282389273,1.9224057327726585,-2.64129638671875,3.25469970703125,34.103333333333346,0.016329931618553853,34.09,34.13,0.13559322033898305,-0.0018163054695561755,0,1,0
0,0.04152960901528237,0.0003298832358012053,0.041283211469350475,0.04197126499383966,0.0415295893544649,0.00032988307962891604,0.041283191925181796,0.04197124512393483,2.857456679823946e-05,2.2697710815317514e-07,2.8405032258856593e-05,2.8878449463170872e-05,2.857456679823946e-05,2.2697710815317514e-07,2.8405032258856593e-05,2.8878449463170872e-05,-2.631457627118644,17.665701871736818,-38.94,24.89,4.630319924376808,0.003749871425347205,4.618156441837623,4.634395362714076,0.019196886570981824,0.003369113207199189,0.012016870884827332,0.024008649659737237,0.009540672060736005,0.022594207582535893,1.562254298148602e-07,0.08445383768093384,-0.5837403129439345,0.0012000283090377894,-0.5851152907180205,-0.5812917932344647,0.31703862572840713,1.5897419303066609,-1.96685791015625,3.30352783203125,34.04,0.016329931618553204,34.0,34.05,0.10847457627118644,-0.0024767801857582556,0,1,0
0,0.04126916956068742,0.0007288278163188142,0.03853099737139378,0.04197126499383966,0.041269150023166404,0.000728827471279432,0.03853097913016968,0.04197124512393483,2.839537068325838e-05,5.01472072952895e-07,2.651136344159949e-05,2.8878449463170872e-05,2.839537068325838e-05,5.01472072952895e-07,2.651136344159949e-05,2.8878449463170872e-05,0.31369491525423804,17.175141207575077,-38.28,28.29,4.628475542308685,0.004594355072705124,4.618668568072737,4.636073998245034,0.004440779939469586,0.002858633616974991,0.0011673552609809358,0.010710247367986564,1.0817605288237614e-07,9.582904925097892e-08,5.41794988734301e-08,4.759123301452395e-07,-0.5691333475691422,0.008212781147209972,-0.5809532633057771,-0.5543128633317532,-0.7219802061322309,1.6754483099349684,-2.74810791015625,3.0517578125,33.98368421052633,0.013459696686889608,33.97,34.0,0.13559322033898305,-0.0019824561403510433,0,1,0
0,0.04096492820632147,0.0007582919600701298,0.039219050895882956,0.043347372042818,0.04096490881283345,0.0007582916010819254,0.03921903232892271,0.04334735152144089,2.8186036545296236e-05,5.217449617119759e-07,2.6984780645913764e-05,2.9825283871799426e-05,2.8186036545296236e-05,5.217449617119759e-07,2.6984780645913764e-05,2.9825283871799426e-05,0.3056122448979644,40.65097689581812,-94.46,94.66,4.728280064473882,0.027732442206405993,4.643057910778653,4.7506308375477015,0.06303962612410147,0.019652207620646477,0.007179708353457859,0.08597673422055233,0.07258222919251817,0.14616617207195515,1.4810605053483528e-07,0.5307532914434532,-0.5346777365857163,0.010963873127354315,-0.5523612126177287,-0.5166046018686677,1.0165993096514907,3.075034300983187,-3.84979248046875,6.91986083984375,33.949999999999996,0.01763834207376356,33.93,33.97,0.05442176870748299,-0.003178534571723359,0,1,0
0,0.04092523767620408,0.0003437439359021708,0.04059515794486131,0.041283211469350475,0.0409252183015063,0.0003437437731679957,0.04059513872642877,0.041283191925181796,2.8158727362017375e-05,2.3651400267967533e-07,2.7931615054542318e-05,2.8405032258856593e-05,2.8158727362017375e-05,2.3651400267967533e-07,2.7931615054542318e-05,2.8405032258856593e-05,-0.4435932203389833,21.646890424605314,-44.34,58.6,4.739656444463491,0.002081359338213214,4.736390202113939,4.7434411001582255,0.03480786671977122,0.011598771351305596,0.015563037681309524,0.053431500869691534,0.008500664026298736,0.020021691104852815,1.0946067400263715e-06,0.07185637087029417,-0.4963584014130337,0.010718472797248598,-0.5144852869130456,-0.47939652153092216,-0.3349498247094545,1.8735836234148773,-3.045654296875,3.61480712890625,33.92157894736841,0.00987455949436666,33.91,33.93,0.10847457627118644,-0.00042105263157901315,0,1,0
0,0.040871315481901184,0.00033726574301372965,0.04059515794486131,0.041283211469350475,0.040871296132730946,0.0003372655833464412,0.04059513872642877,0.041283191925181796,2.8121626041307903e-05,2.3205666345082507e-07,2.7931615054542318e-05,2.8405032258856593e-05,2.8121626041307903e-05,2.3205666345082507e-07,2.7931615054542318e-05,2.8405032258856593e-05,0.2794576271186436,22.63982782120103,-63.91,65.11,4.744099416029908,0.0053761756057518735,4.734211162754685,4.753967036124242,0.007801927623391374,0.003830814983611074,0.0026016251088945806,0.014234728778693006,0.0016646940770258542,0.006862133521228141,4.667333021457498e-08,0.029957995369542745,-0.4657361078395167,0.006671094655716751,-0.4777112282760865,-0.4560411779666532,-0.41158204488490924,1.6988634573824113,-2.98004150390625,3.35235595703125,33.88999999999999,0.01632993161855514,33.87,33.93,0.13559322033898305,-0.0018163054695562928,0,1,0
0,0.04107726347562581,0.0003251610728884249,0.04059515794486131,0.04197126499383966,0.04107724402895646,0.0003251609189516907,0.04059513872642877,0.04197124512393483,2.8263329150082234e-05,2.2372801039418522e-07,2.7931615054542318e-05,2.8878449463170872e-05,2.8263329150082234e-05,2.2372801039418522e-07,2.7931615054542318e-05,2.8878449463170872e-05,0.2622448979591821,34.19647235448485,-87.42,63.99,4.747627474763998,0.005511323578640523,4.732564584426312,4.755428447235254,0.0009745928146066441,0.0006061725670225537,0.00027563392657623003,0.002298904749440792,8.195785348384222e-07,2.4572168470149097e-06,3.9056555198313525e-08,1.0811036691653515e-05,-0.45214284605108035,0.0012694193540435236,-0.4552585269437498,-0.4509460715724799,-0.26512571954845493,2.592173816989889,-3.81011962890625,4.60968017578125,33.87555555555556,0.015713484026367498,33.84,33.89,0.10884353741496598,3.5197163381305274e-16,0,1,0
0,0.04092523767620408,0.00034374393590217047,0.04059515794486131,0.041283211469350475,0.04092521830150618,0.0003437437731679958,0.04059513872642877,0.041283191925181796,2.815872736201741e-05,2.365140026796752e-07,2.7931615054542318e-05,2.8405032258856593e-05,2.815872736201741e-05,2.365140026796752e-07,2.7931615054542318e-05,2.8405032258856593e-05,-0.817322033898306,25.548320359027137,-73.31,46.67,4.75732895703197,0.0049455717096720565,4.749541181419495,4.7666276692968115,0.016994858206242275,0.011279274296617044,0.0005376121595206044,0.03812612967695785,0.029375850811074376,0.05784744103879103,1.6825054114377735e-06,0.25377040152559394,-0.4618402593872517,0.006999556450086609,-0.47542283646288325,-0.45266135386528095,1.4181761824463497,2.415140760411801,-2.17437744140625,5.841064453125,33.85105263157895,0.017440043711345717,33.81,33.87,0.13559322033898305,0.0005789473684208252,0,1,0
0,0.041194279381151194,0.0008910682452090991,0.03853099737139378,0.04678763966526387,0.04119425987908447,0.0008910678233623632,0.03853097913016968,0.04678761751520604,2.8343842280067652e-05,6.131020661703741e-07,2.651136344159949e-05,3.219236989337081e-05,2.8343842280067652e-05,6.131020661703741e-07,2.651136344159949e-05,3.219236989337081e-05,1.2059661016949141,28.52561930875479,-49.07,79.35,4.74714992229071,0.025923038270222062,4.683298030256016,4.768343530782641,0.04555279716677296,0.009304220992555658,0.0278606228669511,0.05986929591362053,0.026928170016655553,0.0771829489053849,4.081048299298118e-08,0.28018949325109077,-0.4991894711656115,0.013961206201683856,-0.5228955926733977,-0.4775360813042225,-0.006559906337263419,2.967215275287138,-4.8980712890625,5.32989501953125,33.83111111111113,0.010482201257841264,33.81,33.84,0.13559322033898305,0.0012590299277605622,0,1,0
0,0.04116698621183539,0.000469043439218402,0.03853099737139378,0.043347372042818,0.04116696672268967,0.00046904321716532786,0.03853097913016968,0.04334735152144089,2.8325063136506234e-05,3.22726685924016e-07,2.651136344159949e-05,2.9825283871799426e-05,2.8325063136506234e-05,3.22726685924016e-07,2.651136344159949e-05,2.9825283871799426e-05,-0.19623728813559277,42.59767455749676,-174.45,111.37,4.751282792730409,0.018793559208310186,4.694675525615838,4.7683734964267765,0.10022294356577938,0.027938107178755042,0.026804596075096377,0.1293766733338258,0.13155244568569682,0.1474344231183786,4.619410521655709e-06,0.6337650376595438,-0.5506276146082764,0.014457144013358236,-0.5728598147960392,-0.525823892727277,0.17173946939094487,3.5931438029253275,-5.072021484375,5.77545166015625,33.819473684210514,0.009986139979477105,33.81,33.83,0.13559322033898305,-0.0010175438596489203,0,1,0
0,0.04088067675434321,0.0005191498709839144,0.03853099737139378,0.04197126499383966,0.040880657400741295,0.0005191496252096103,0.03853097913016968,0.04197124512393483,2.812806709170673e-05,3.572025602569091e-07,2.651136344159949e-05,2.8878449463170872e-05,2.812806709170673e-05,3.572025602569091e-07,2.651136344159949e-05,2.8878449463170872e-05,-1.3276190476190481,15.930837350397102,-42.56,26.3,4.760375783385587,0.005472500638773691,4.747121183158527,4.767990028331212,0.14124147286790376,0.007669914352988348,0.11907962820223725,0.15110991062406695,0.0841719411733838,0.10548704079056068,2.0492210150990786e-08,0.3598439701609504,-0.5858592437544148,0.005428669960006408,-0.5922645308088222,-0.5748300969642031,-0.9911336023221833,2.250833031563777,-4.6295166015625,2.59552001953125,33.80555555555556,0.00831479419283228,33.79,33.81,0.13605442176870747,-0.0011558307533541539,0,1,0
0,0.04008964923299178,0.0005159326685883819,0.037842943846904606,0.042659318518328826,0.04008963025387554,0.0005159324243371534,0.03784292593141665,0.04265929832268786,2.7583798333005297e-05,3.5498895490558473e-07,2.6037946237285214e-05,2.935186666748515e-05,2.7583798333005297e-05,3.5498895490558473e-07,2.6037946237285214e-05,2.935186666748515e-05,2.3495593220338975,26.213476624724066,-58.92,88.02,4.691276901382548,0.04474124225793537,4.644146328090639,4.772122026151223,0.08646449279426428,0.03487210071213378,0.048232477827845704,0.14569861597658199,0.07823743581712066,0.2191177091227664,1.955007000731257e-08,0.9259519763635854,-0.5889754764657567,0.003402261370199367,-0.5924820661066467,-0.5818307863437272,-0.4124965620395859,2.313966377614268,-3.01361083984375,4.0252685546875,33.78999999999999,0.012977713690460725,33.77,33.81,0.08135593220338982,-0.0011228070175438108,0,1,0
0,0.0403394623783282,0.0004177647321866696,0.039219050895882956,0.041283211469350475,0.040339443280946304,0.00041776453440979945,0.03921903232892271,0.041283191925181796,2.7755682985371422e-05,2.874442242262339e-07,2.6984780645913764e-05,2.8405032258856593e-05,2.7755682985371422e-05,2.874442242262339e-07,2.6984780645913764e-05,2.8405032258856593e-05,-1.181254237288136,14.446511447514242,-35.43,36.34,4.747232982763885,0.004579362540870565,4.738456285765396,4.75779235522341,0.11304599646292436,0.01164499493873515,0.09406578033063992,0.1343504813072201,0.07120017828459398,0.10967963062598489,2.187157406741136e-06,0.3202133938673133,-0.5674720166968529,0.008653877053658042,-0.5806033497286578,-0.5524138858241562,1.4402322653765416,2.4090698575285283,-2.36358642578125,5.93109130859375,33.784444444444446,0.008958064164774383,33.77,33.79,0.16271186440677965,-0.001341589267285595,0,1,0
