,net_acc_mean,net_acc_std,net_acc_min,net_acc_max,ACC_x_mean,ACC_x_std,ACC_x_min,ACC_x_max,ACC_y_mean,ACC_y_std,ACC_y_min,ACC_y_max,ACC_z_mean,ACC_z_std,ACC_z_min,ACC_z_max,BVP_mean,BVP_std,BVP_min,BVP_max,EDA_mean,EDA_std,EDA_min,EDA_max,EDA_phasic_mean,EDA_phasic_std,EDA_phasic_min,EDA_phasic_max,EDA_smna_mean,EDA_smna_std,EDA_smna_min,EDA_smna_max,EDA_tonic_mean,EDA_tonic_std,EDA_tonic_min,EDA_tonic_max,Resp_mean,Resp_std,Resp_min,Resp_max,TEMP_mean,TEMP_std,TEMP_min,TEMP_max,BVP_peak_freq,TEMP_slope,0,1,2
0,0.030111639717002557,0.00046198626132624125,0.029586301553034506,0.031650462126502035,0.030111625461644434,0.0004619860426141502,0.029586287546380288,0.03165044714263938,2.071840021853764e-05,3.1787097439991963e-07,2.035693978551389e-05,2.177719139845672e-05,2.071840021853764e-05,3.1787097439991963e-07,2.035693978551389e-05,2.177719139845672e-05,-1.338542372881357,24.532321583619083,-78.71,36.54,0.6433194753656327,0.003947010095573696,0.6361730816136484,0.6492541989286418,0.005259096174318939,0.00135218172091648,0.003154876989481503,0.008128395896124673,0.004497912920375051,0.010589912261721244,3.776929114185368e-07,0.03847509056477366,1.1091883970252256,0.01701047849899442,1.0792687978076785,1.1345382638858903,0.232443955978029,0.3335783703587998,-0.66070556640625,1.14593505859375,33.38222222222222,0.009749960430437212,33.37,33.39,0.13559322033898305,0.0015892672858619616,0,1,0
0,0.028612729219063448,0.00205374882141767,0.022705766308142764,0.03096240860201286,0.028612715673314786,0.002053747849138334,0.022705755558849988,0.03096239394388635,1.968707054403521e-05,1.4130877770317873e-06,1.5622767742371126e-05,2.1303774194142445e-05,1.968707054403521e-05,1.4130877770317873e-06,1.5622767742371126e-05,2.1303774194142445e-05,-2.1187118644067784,26.508483701849404,-63.82,35.45,0.630187468328741,0.0035030842726543063,0.625407004049386,0.6362465004412464,0.01295904052057074,0.0053557324323724315,0.0059749715001971675,0.02131278669667494,0.014139864698294266,0.033052695365269065,6.67716431035359e-08,0.10164426407729665,1.0394470106913432,0.0220702046542302,1.0032930295048539,1.0752538002066314,0.4891689394040393,1.1347508478583817,-1.2298583984375,2.984619140625,33.395555555555546,0.008958064164774385,33.39,33.41,0.13559322033898305,0.0006811145510834558,0,1,0
0,0.027020047867101927,0.000509612964954486,0.02476992688161029,0.028898248028545334,0.02702003507535546,0.0005096127236951124,0.02476991515510908,0.02889823434762726,1.8591221564017396e-05,3.506406646636661e-07,1.7043019355313955e-05,1.9883522581199616e-05,1.8591221564017396e-05,3.506406646636661e-07,1.7043019355313955e-05,1.9883522581199616e-05,6.376372881355935,61.345854572943146,-128.88,115.64,0.6136912065728277,0.0042600251222217654,0.6070731689902014,0.6233805940228754,0.013396494102043226,0.002331239852469445,0.009873121632122752,0.01854541960169379,0.006490298090515066,0.0181339853146301,6.330291985046088e-08,0.07544017088491148,0.9654833160772759,0.019364278681095023,0.9357000314490669,0.9991401763872998,-0.5674707682493603,0.7695442198022479,-2.2064208984375,1.17950439453125,33.4015789473684,0.009874559494363151,33.39,33.41,0.16271186440677965,0.00014035087719295453,0,1,0
0,0.026852809999961907,0.0001594167252920209,0.026146033930588636,0.027522140979566984,0.026852797287388697,0.00015941664982145373,0.02614602155261514,0.027522127950121197,1.847615306905443e-05,1.0968713584414332e-07,1.7989853763942512e-05,1.8936688172571062e-05,1.847615306905443e-05,1.0968713584414332e-07,1.7989853763942512e-05,1.8936688172571062e-05,-6.906972789115649,36.83751473506869,-103.11,52.59,0.6018726699831606,0.0031396064457754874,0.5977802196562879,0.6073579656026696,0.01152716930155822,0.0013212572290173788,0.009056415373859043,0.013689620656434785,0.009494796786778628,0.02445845863432833,8.204956203350378e-08,0.08260702946133672,0.9117797987540861,0.012279123840430117,0.8925034353309813,0.9328861876946779,0.10403190593861468,0.4360329380954455,-1.42059326171875,0.68511962890625,33.40999999999998,1.4210854715202004e-14,33.41,33.41,0.10884353741496598,0.0,0,1,0
0,0.02682472618263582,7.970836264601064e-05,0.026146033930588636,0.026834087455077812,0.02682471348335796,7.970832491072696e-05,0.02614602155261514,0.02683407475136817,1.845682991785793e-05,5.484356792207146e-08,1.7989853763942512e-05,1.8463270968256787e-05,1.845682991785793e-05,5.484356792207146e-08,1.7989853763942512e-05,1.8463270968256787e-05,3.220847457627119,33.49670954182325,-78.22,51.39,0.5924044688463856,0.00316133036191527,0.5877820970902226,0.5973155653245472,0.00817724276002047,0.0024733924231451557,0.005061950985942488,0.011968801396708537,0.004866031868814909,0.012891528366397864,1.1698436278018143e-07,0.048273570181351255,0.8718930095178203,0.011326324173076724,0.8530394756702727,0.890416219355595,0.22884207978733717,0.2508503741658202,-0.701904296875,0.6378173828125,33.41842105263157,0.009874559494366657,33.41,33.43,0.13559322033898305,0.0001403508771930044,0,1,0
0,0.02679224636237243,0.00016443306925816598,0.026146033930588636,0.026834087455077812,0.02679223367847106,0.00016443299141277674,0.02614602155261514,0.02683407475136817,1.8434482084210625e-05,1.131386457220905e-07,1.7989853763942512e-05,1.8463270968256787e-05,1.8434482084210625e-05,1.131386457220905e-07,1.7989853763942512e-05,1.8463270968256787e-05,-3.8682033898305095,36.55699819612072,-80.5,45.62,0.58273329979013,0.0031436068842164177,0.5782546143832951,0.5874655254181278,0.003072331525402992,0.0016169562285050915,0.0009779718442077458,0.005987564092050019,3.362242910036802e-07,2.679316285399215e-07,1.1993371400176311e-07,9.548262299013954e-07,0.832022945044212,0.011562228229697064,0.813038331942177,0.8508664847848324,0.08180424769842731,0.19725908563498243,-0.860595703125,0.43792724609375,33.42222222222221,0.009749960430437216,33.41,33.43,0.13559322033898305,0.0002683178534572143,0,1,0
0,0.02677323918420466,0.0001953569941545852,0.026146033930588636,0.026834087455077812,0.0267732265093016,0.00019535690166928835,0.02614602155261514,0.02683407475136817,1.8421404140664353e-05,1.3441594109203487e-07,1.7989853763942512e-05,1.8463270968256787e-05,1.8421404140664353e-05,1.3441594109203487e-07,1.7989853763942512e-05,1.8463270968256787e-05,2.968881355932207,34.43888816542528,-75.88,44.72,0.5740081437641228,0.0023811341510247106,0.5683498272354381,0.5778924347582962,0.003584271545265996,0.0023892052897510753,0.0008639175427910966,0.007147976788189213,0.004455722253405586,0.01548666893260615,1.3235123652588499e-07,0.06831909207102829,0.7912613451113967,0.011723823033865396,0.7723503750142506,0.8108093266338225,0.07783354955630623,0.19730004995995007,-0.80718994140625,0.347900390625,33.41526315789472,0.015683857290264613,33.39,33.43,0.10847457627118644,0.0010175438596489578,0,1,0
0,0.026768558547983646,0.00020197365624539213,0.026146033930588636,0.026834087455077812,0.026768545875296482,0.00020197356062765553,0.02614602155261514,0.02683407475136817,1.841818361546493e-05,1.3896855445339726e-07,1.7989853763942512e-05,1.8463270968256787e-05,1.841818361546493e-05,1.3896855445339726e-07,1.7989853763942512e-05,1.8463270968256787e-05,1.6304421768707467,34.15894459820126,-72.9,48.8,0.5658177929894186,0.002355432952513523,0.5618596623892703,0.5698446127456784,0.002983531346357515,0.0010336052889855995,0.001538754320749419,0.005379262359794827,0.0007005517132275311,0.002885291118461264,9.848882468257991e-08,0.012596910684919867,0.7540610246024485,0.009789933647302839,0.7382352883319516,0.7703519003759777,0.031951165968371976,0.1945671645711415,-0.86822509765625,0.38604736328125,33.41444444444443,0.008314794192832278,33.41,33.43,0.13605442176870747,-0.0008255933952529671,0,1,0
0,0.026411027517723024,0.00042717802456615305,0.02476992688161029,0.027522140979566984,0.026411015014297008,0.0004271778223328691,0.02476991515510908,0.027522127950121197,1.8172183362901395e-05,2.939210670924848e-07,1.7043019355313955e-05,1.8936688172571062e-05,1.8172183362901395e-05,2.939210670924848e-07,1.7043019355313955e-05,1.8936688172571062e-05,-2.0993898305084717,34.52586508152538,-89.65,51.46,0.5586420786145498,0.0024752483135125096,0.5546693160286537,0.5634647668601942,0.003877243586416723,0.0018762540810450625,0.0009659254097015967,0.006273907611866055,0.0038511212210279233,0.01432272553374991,8.294403126829497e-08,0.06261292708227498,0.7211252495189758,0.009329907250234547,0.705809739656921,0.7364215014375297,0.072194950720408,0.2661823119824492,-0.8819580078125,0.76141357421875,33.425555555555555,0.008314794192832283,33.41,33.43,0.13559322033898305,0.0011558307533541539,0,1,0
0,0.026057101842389404,0.0002811500425110758,0.02476992688161029,0.026834087455077812,0.02605708950651774,0.000281149909409903,0.02476991515510908,0.02683407475136817,1.7928663785153642e-05,1.934460944986091e-07,1.7043019355313955e-05,1.8463270968256787e-05,1.7928663785153642e-05,1.934460944986091e-07,1.7043019355313955e-05,1.8463270968256787e-05,2.0120677966101685,41.27216107078754,-95.51,64.11,0.5514194127590807,0.0022385033166015095,0.5475817749100274,0.555160172084037,0.0023568815338215286,0.0007451655967882504,0.0011916776691442731,0.003375956085696379,0.0016129712435885588,0.004749016261073427,9.639088174862032e-08,0.01740053544828915,0.6874221645860602,0.010090116051627766,0.6708898511751988,0.703988306226109,0.14591832314768144,0.2472820374776561,-1.00250244140625,0.70037841796875,33.427894736842106,0.01280581585326018,33.41,33.47,0.13559322033898305,0.0014035087719299316,0,1,0
0,0.0261179501132626,0.00013614135557103965,0.025457980406099465,0.026146033930588636,0.026117937748584327,0.00013614129111942568,0.02545796835386211,0.02614602155261514,1.7970530612746066e-05,9.367245083708894e-08,1.7516436559628233e-05,1.7989853763942512e-05,1.7970530612746066e-05,9.367245083708894e-08,1.7516436559628233e-05,1.7989853763942512e-05,-0.35765306122449053,32.57732428265171,-82.49,48.06,0.5451570040321276,0.0018330565597317306,0.5410804545145677,0.5475265849081594,0.00860808297423216,0.0037839569562527348,0.0024080011092817905,0.013542675909712528,0.007581176145902164,0.024758521952645312,1.4943205264850157e-07,0.1053704298359038,0.6543050355093903,0.008835517928239807,0.6401860269418643,0.6690810204180058,0.01379964369402334,0.20861851949833607,-0.93231201171875,0.31890869140625,33.452222222222225,0.023934065809487495,33.41,33.47,0.13605442176870747,0.0013209494324047473,0,1,0
0,0.026183226012993503,0.000208325466336734,0.025457980406099465,0.026834087455077812,0.026183213617412535,0.00020832536771194407,0.02545796835386211,0.02683407475136817,1.8015443883094655e-05,1.4333893563560422e-07,1.7516436559628233e-05,1.8463270968256787e-05,1.8015443883094655e-05,1.4333893563560422e-07,1.7516436559628233e-05,1.8463270968256787e-05,0.5947457627118646,39.74577391695119,-85.01,57.48,0.5384049927390124,0.0022891322734853387,0.534440226288915,0.5427383666358606,0.005409138936190265,0.0013321775323546108,0.0035212880787432958,0.007532618667660131,0.003269712212143709,0.013740826945466534,9.936698697199375e-08,0.06156475599094202,0.6259709968640625,0.007415787426031142,0.614201014571866,0.6386380544377508,0.07473067669359686,0.263133787072439,-0.81329345703125,0.53253173828125,33.44684210526315,0.0097617036794698,33.43,33.47,0.13559322033898305,-0.0010877192982456719,0,1,0
0,0.02634262065187131,0.0003210247715661043,0.026146033930588636,0.027522140979566984,0.02634260818083024,0.00032102461958756197,0.02614602155261514,0.027522127950121197,1.812511582231804e-05,2.2088201638569638e-07,1.7989853763942512e-05,1.8936688172571062e-05,1.812511582231804e-05,2.2088201638569638e-07,1.7989853763942512e-05,1.8936688172571062e-05,-2.8421355932203425,38.6466314691697,-87.98,50.22,0.5337776900025007,0.0017489941330736654,0.5316526792231145,0.5368454695488275,0.006493996986344962,0.0014051769251316134,0.004004414022597418,0.00869845574340115,0.006458228131305242,0.01898104614244702,1.2446712091551682e-07,0.07361999983155798,0.6027750912157166,0.006223240337555785,0.5925178732943877,0.6129789243980093,0.10556070988791498,0.18214566948931848,-0.76751708984375,0.52642822265625,33.44555555555555,0.01571348402636772,33.43,33.47,0.13559322033898305,-0.0018163054695562342,0,1,0
0,0.02640172949712182,0.0003324936285174197,0.026146033930588636,0.026834087455077812,0.02640171699809765,0.0003324934711093266,0.02614602155261514,0.02683407475136817,1.8165785833113364e-05,2.2877319636127006e-07,1.7989853763942512e-05,1.8463270968256787e-05,1.8165785833113364e-05,2.2877319636127006e-07,1.7989853763942512e-05,1.8463270968256787e-05,2.048610169491525,34.772322752352835,-72.35,54.99,0.5282025471541879,0.0018189522596464454,0.525230091452442,0.5307122239137179,0.0038826942514333393,0.001365192249881095,0.0015902984048039835,0.0061765654171301605,0.0009634287983575968,0.0036795728593707975,6.686394466576262e-08,0.016486852308949043,0.5792858145476669,0.007507965305162314,0.5666637447080973,0.5912745862388544,0.04759568434495192,0.22866379070606668,-0.89569091796875,0.5035400390625,33.45842105263159,0.009874559494363151,33.45,33.47,0.13559322033898305,0.0007017543859647727,0,1,0
0,0.026351981924313345,0.00031510104224599374,0.026146033930588636,0.026834087455077812,0.026351969448840485,0.00031510089307184425,0.02614602155261514,0.02683407475136817,1.813155687271687e-05,2.1680617740801923e-07,1.7989853763942512e-05,1.8463270968256787e-05,1.813155687271687e-05,2.1680617740801923e-07,1.7989853763942512e-05,1.8463270968256787e-05,-0.35285714285714087,38.94940084071052,-85.82,60.76,0.5225201175627964,0.0020008921682714473,0.5198869470717843,0.5264355027447933,0.006102122451883299,0.003568620395775625,0.0009431676074757455,0.010034706570932736,0.009279587745176152,0.025559060287817747,6.648870070832813e-08,0.09508774395584593,0.5529572114292284,0.007398092620007967,0.5410454945106407,0.5652076401483128,0.02044460022124108,0.18988473306846387,-0.90484619140625,0.33721923828125,33.45888888888889,0.00993807989999709,33.45,33.47,0.13605442176870747,0.0,0,1,0
0,0.02635666256053435,0.0003271091682253726,0.026146033930588636,0.027522140979566984,0.02635665008284561,0.0003271090133663743,0.02614602155261514,0.027522127950121197,1.813477739791628e-05,2.2506840298768122e-07,1.7989853763942512e-05,1.8936688172571062e-05,1.813477739791628e-05,2.2506840298768122e-07,1.7989853763942512e-05,1.8936688172571062e-05,0.43050847457627145,37.92464912963415,-80.26,61.16,0.519132388380279,0.0016081836899845803,0.5153559478471293,0.5210948720902834,0.011792699168854972,0.0025070741970385324,0.007059029066461239,0.015548577060169334,0.00632047399496692,0.01609060997176293,1.284833361092641e-07,0.0633148203993191,0.5296877070799976,0.005795622945724743,0.5207530574504535,0.5397238784598769,0.1496691678645187,0.28290825251101653,-0.90789794921875,0.52947998046875,33.46222222222224,0.00974996043043375,33.45,33.47,0.13559322033898305,0.001589267285861397,0,1,0
0,0.026545848816440502,0.00034876874035714577,0.026146033930588636,0.027522140979566984,0.026545836249187837,0.000348768575244141,0.02614602155261514,0.027522127950121197,1.826494754482783e-05,2.3997133382126765e-07,1.7989853763942512e-05,1.8936688172571062e-05,1.826494754482783e-05,2.3997133382126765e-07,1.7989853763942512e-05,1.8936688172571062e-05,-0.5896949152542368,43.03823019770901,-95.8,92.87,0.5138182267369366,0.0013387561214390595,0.5115313384309228,0.5164557443406412,0.0053581826122118155,0.001693537870000129,0.002331962333508115,0.0076891296745187215,0.0026104691217925594,0.011073990016379702,7.328585648752606e-08,0.049593429706678516,0.5120251278064698,0.004717997341343241,0.5042012046757158,0.5198362035245511,-0.03426696171535747,0.2422742791120063,-0.92315673828125,0.38604736328125,33.45526315789474,0.008806947647725358,33.45,33.47,0.13559322033898305,-0.000666666666666534,0,1,0
0,0.026403468922744498,0.0003329508649836897,0.026146033930588636,0.026834087455077812,0.02640345642289685,0.0003329507073591331,0.02614602155261514,0.02683407475136817,1.816698264991043e-05,2.2908779922553507e-07,1.7989853763942512e-05,1.8463270968256787e-05,1.816698264991043e-05,2.2908779922553507e-07,1.7989853763942512e-05,1.8463270968256787e-05,-1.368474576271185,36.45579330927632,-81.76,48.82,0.5090868776489024,0.0011544223443204554,0.5067081502327155,0.5114656508855243,0.0030041871464690775,0.0013916923805281714,0.0011149135976976025,0.005340451113968404,0.013535777420965425,0.04549979445057177,7.822056690559576e-08,0.19881638026353962,0.49423439709218453,0.005903827371536988,0.48389867391751434,0.5032795644588179,0.22596832095485572,0.24266106461075174,-0.81634521484375,0.57220458984375,33.46777777777779,0.014740554623801224,33.45,33.49,0.13559322033898305,0.001981424148606593,0,1,0
0,0.026562610554259004,0.00035492681462871364,0.026146033930588636,0.027522140979566984,0.026562597979071043,0.00035492664660037175,0.02614602155261514,0.027522127950121197,1.8276480506690605e-05,2.442084145160716e-07,1.7989853763942512e-05,1.8936688172571062e-05,1.8276480506690605e-05,2.442084145160716e-07,1.7989853763942512e-05,1.8936688172571062e-05,-0.47489795918367284,53.36615630973717,-127.66,64.6,0.5074274734446835,0.0021373973020826957,0.5041663957319404,0.5114910033934996,0.01897494015065155,0.0029428701458116373,0.011015969191207373,0.023466267407951387,0.014525301624971974,0.038420451333474846,1.3284908212396473e-07,0.13324416677060769,0.46914300439740125,0.008210711209531506,0.4556982132062177,0.4824976704970953,0.03316432745881783,0.16614537227619955,-0.90484619140625,0.36468505859375,33.47736842105264,0.009647527778855908,33.47,33.49,0.13605442176870747,0.0014736842105265461,0,1,0
0,0.029563056501531525,0.009647155662629482,0.022705766308142764,0.08394252998767932,0.029563042505881848,0.00964715109550326,0.022705755558849988,0.08394249024786966,2.0340945961043823e-05,6.637753170114816e-06,1.5622767742371126e-05,5.7756898926341744e-05,2.0340945961043823e-05,6.637753170114816e-06,1.5622767742371126e-05,5.7756898926341744e-05,-1.2681016949152548,34.95346278216558,-82.12,49.21,0.5041861067139438,0.00137290685572384,0.501711789103278,0.5062630830108645,0.02865251933638234,0.0061199419737394825,0.019175462520000124,0.0370987053578784,0.017214257373172826,0.03047109693202494,4.4026140638697697e-07,0.09509965121233166,0.44366584014698657,0.005984408566905838,0.43486788283771854,0.4542636337713221,-0.07643786935454158,0.3946021493892035,-2.38494873046875,0.250244140625,33.475555555555566,0.008958064164777567,33.47,33.49,0.13559322033898305,-2.0639834881324176e-05,0,1,0
0,0.0269277001794981,0.015018341923852395,0.0,0.08738279761012517,0.025663916250087494,0.017088421041698287,-0.01995354276383787,0.0873827562416348,1.7658139668402585e-05,1.175774275937908e-05,-1.372909892511402e-05,6.012398494791312e-05,1.7658139668402585e-05,1.175774275937908e-05,-1.372909892511402e-05,6.012398494791312e-05,-1.333627118644067,135.1399574329503,-386.4,195.91,0.5538787333857624,0.020838296848893496,0.5040142453793319,0.5767796465961107,0.2735376969351726,0.08517612747697523,0.041404825195053896,0.35947742805318633,0.28538903179848263,0.6069452650679913,2.8195068502157028e-08,1.9526450180184076,0.43079811334074597,0.0014597953512158813,0.42948413565524707,0.43414135079950994,0.960695347799265,1.9187815204515206,-3.28826904296875,3.2562255859375,33.47444444444446,0.008314794192832278,33.47,33.49,0.05423728813559322,-0.0006604747162023736,0,1,0
0,0.025936828467061485,0.0003890474486692896,0.025457980406099465,0.026834087455077812,0.02593681618812943,0.0003890472644876656,0.02545796835386211,0.02683407475136817,1.7845909343711844e-05,2.6768521479685534e-07,1.7516436559628233e-05,1.8463270968256787e-05,1.7845909343711844e-05,2.6768521479685534e-07,1.7516436559628233e-05,1.8463270968256787e-05,3.061152542372876,40.83342989068818,-77.69,98.21,0.5290834480164388,0.003942344617198174,0.5237869598513509,0.5364302977747124,0.15278705247116645,0.02121593039422147,0.12214709963783041,0.1894467061867619,0.09509453139703289,0.13288908794395082,1.6298031781936118e-06,0.48854829526746224,0.4346813693011231,0.003643925307801837,0.4299901500568129,0.44176649200727425,-0.8099936965677342,0.4957388178323265,-2.105712890625,0.67291259765625,33.49105263157895,0.010205641805087293,33.47,33.5,0.16271186440677965,-7.0175438596577e-05,0,1,0
0,0.025149058415512442,0.00044816939053677615,0.023393819832631935,0.026146033930588636,0.025149046509524018,0.00044816917836582726,0.02339380875760302,0.02614602155261514,1.7303881896466722e-05,3.0836423675712474e-07,1.6096184946685404e-05,1.7989853763942512e-05,1.7303881896466722e-05,3.0836423675712474e-07,1.6096184946685404e-05,1.7989853763942512e-05,1.7169047619047633,38.09118179967237,-80.21,50.73,0.5197341739959548,0.0022591052863642,0.517151632546179,0.5240220275567424,0.09080219122276893,0.016434754536691312,0.06854841153248822,0.1215053203589009,0.03768206168487466,0.06792252444294511,7.098345569112041e-07,0.21816391277505098,0.4536805021095652,0.006836389473102399,0.4428588460173583,0.4649838327198136,-0.001407083743263415,0.26312063273740754,-1.04217529296875,0.58441162109375,33.50333333333333,0.016996731711976593,33.47,33.53,0.13605442176870747,0.0017337461300310254,0,1,0
0,0.024676314157189964,0.00023589663584084504,0.024081873357121114,0.02476992688161029,0.024676302475006615,0.0002358965241633979,0.02408186195635605,0.02476991515510908,1.6978608851325607e-05,1.6230935802534704e-07,1.656960215099968e-05,1.7043019355313955e-05,1.6978608851325607e-05,1.6230935802534704e-07,1.656960215099968e-05,1.7043019355313955e-05,-0.30511864406779743,39.619544328305125,-82.07,52.78,0.5128086888157826,0.002700055714898384,0.5086322666788242,0.5170856715483619,0.03766165298935208,0.015721508343178356,0.013606416928564019,0.0640202003526042,0.00830758092827115,0.024515985712101007,1.2500751100930074e-07,0.09063610156425894,0.4751721996253052,0.004618028601452322,0.4662674398473555,0.4808617521724997,0.198942141852367,0.19730049622666326,-0.6072998046875,0.59661865234375,33.50631578947368,0.012230473724865994,33.5,33.53,0.13559322033898305,0.00010526315789474083,0,1,0
0,0.02476527787130965,0.00024648524749937913,0.023393819832631935,0.025457980406099465,0.024765266147009392,0.00024648513080910406,0.02339380875760302,0.02545796835386211,1.703982059041992e-05,1.6959488269826323e-07,1.6096184946685404e-05,1.7516436559628233e-05,1.703982059041992e-05,1.6959488269826323e-07,1.6096184946685404e-05,1.7516436559628233e-05,-1.5306440677966098,37.6230773742739,-79.83,52.6,0.5057477561550443,0.001982837252415395,0.5023689721696348,0.5099601083416933,0.005115340535365781,0.003174716264627218,0.001447696561919199,0.012037186415300114,2.596871528278329e-07,4.3845048365360865e-07,9.619728234822045e-08,2.025683925422489e-06,0.4761603609526128,0.004365622149738537,0.46737219296652677,0.48094753699838766,0.17275477358172703,0.5261198853148886,-1.17034912109375,1.0040283203125,33.50666666666666,0.012472191289246943,33.5,33.53,0.13559322033898305,0.0014860681114551647,0,1,0
0,0.02496651360289286,0.0003498286344074696,0.024081873357121114,0.026146033930588636,0.024966501783324255,0.00034982846879269384,0.02408186195635605,0.02614602155261514,1.717828141368946e-05,2.4070059696768773e-07,1.656960215099968e-05,1.7989853763942512e-05,1.717828141368946e-05,2.4070059696768773e-07,1.656960215099968e-05,1.7989853763942512e-05,-1.7130169491525422,38.845654505348016,-82.25,51.96,0.5006213696515954,0.0016000158142944361,0.49839268240026274,0.5043340071207558,0.004899400061303542,0.0030209301684271596,0.001539168376619055,0.009457914512795824,0.005973707458705865,0.02064328319913581,1.4885633572991885e-07,0.0909110513675641,0.4512951788101671,0.00903982812098596,0.4365877684458399,0.46590960319394825,-0.03679621012571728,0.28662963119474355,-1.14593505859375,0.36163330078125,33.50631578947368,0.012230473724865994,33.5,33.53,0.13559322033898305,-0.00010526315789474083,0,1,0
0,0.025223948595048656,0.00032596859335272936,0.02476992688161029,0.025457980406099465,0.025223936653606015,0.00032596843903369974,0.02476991515510908,0.02545796835386211,1.7355410299657394e-05,2.2428362716966898e-07,1.7043019355313955e-05,1.7516436559628233e-05,1.7355410299657394e-05,2.2428362716966898e-07,1.7043019355313955e-05,1.7516436559628233e-05,3.745102040816328,37.678659983959975,-83.72,51.25,0.49516964148456794,0.0016861617356529863,0.49243731810290164,0.4990467851344733,0.006973076827271402,0.0011906810414140433,0.005166292603852429,0.008949767214921358,0.00513205845456921,0.014312909812336844,1.6921633244626477e-07,0.0564792652132165,0.4254894599593094,0.005052741363966118,0.4186055432729198,0.43509053683737176,0.16441629187344914,0.41595767613978224,-1.14898681640625,0.8331298828125,33.50999999999999,0.014142135623731485,33.5,33.53,0.13605442176870747,0.0012383900928793039,0,1,0
0,0.02522552989106931,0.0006275302918923325,0.023393819832631935,0.026834087455077812,0.025225517948877986,0.0006275299948089075,0.02339380875760302,0.02683407475136817,1.7356498314927453e-05,4.317740202417414e-07,1.6096184946685404e-05,1.8463270968256787e-05,1.7356498314927453e-05,4.317740202417414e-07,1.6096184946685404e-05,1.8463270968256787e-05,4.35694915254237,51.06791453642013,-120.68,96.25,0.49340130873762406,0.0017365447385508154,0.489944207687619,0.4956882378235935,0.00872109316737397,0.006145842243613483,0.0024549691698455317,0.01837742443368634,0.010415451689404493,0.03848647928906996,9.258898468755827e-08,0.16803797572449702,0.4148140643780054,0.0019026922213626581,0.4116379680050695,0.4181039137542166,0.5716767105448146,1.831653617992079,-1.14593505859375,8.306884765625,33.527777777777764,0.01685083432011381,33.5,33.55,0.13559322033898305,0.0023942208462330475,0,1,0
0,0.025570315675403795,0.0006522059713743517,0.024081873357121114,0.028898248028545334,0.02557030356998506,0.0006522056626090437,0.02408186195635605,0.02889823434762726,1.759372916441427e-05,4.487521924029937e-07,1.656960215099968e-05,1.9883522581199616e-05,1.759372916441427e-05,4.487521924029937e-07,1.656960215099968e-05,1.9883522581199616e-05,-6.105728813559318,38.161011882006754,-91.64,49.4,0.4913421772343587,0.0014861405588088618,0.4889708488847348,0.49435694299679006,0.008282043254381343,0.003178307076557573,0.00404819837542837,0.015526512560778898,0.0017133491167652816,0.006754590037736316,6.058574313072551e-08,0.030290962003567706,0.40444564605528494,0.004957961385354488,0.39501140956691355,0.41118150512001966,-0.90469237296812,3.365042729401443,-4.11529541015625,8.82720947265625,33.53421052631578,0.00815364914990873,33.53,33.55,0.16271186440677965,0.0006315789473682954,0,1,0
0,0.025528189949414613,0.00023719328985695413,0.02476992688161029,0.026146033930588636,0.025528177863939,0.00023719317756565068,0.02476991515510908,0.02614602155261514,1.7564744437619513e-05,1.632015245464419e-07,1.7043019355313955e-05,1.7989853763942512e-05,1.7564744437619513e-05,1.632015245464419e-07,1.7043019355313955e-05,1.7989853763942512e-05,-2.716972789115647,34.066634034512944,-71.77,44.26,0.4852600807561555,0.0016679999973328165,0.4832272567402348,0.4884455212499347,0.007120491324827469,0.0026395803796653962,0.003220741868267941,0.013863927787012963,0.012481905943821953,0.021194356812349144,1.0631452426745902e-07,0.06156896332184161,0.381063655589455,0.007766488437380642,0.36844331132642744,0.3936418793968333,0.3521789096425248,0.62235612376067,-1.092529296875,1.57012939453125,33.524444444444434,0.013833221775543074,33.5,33.55,0.13605442176870747,-0.00014447884416933523,0,1,0
0,0.02584384826104943,0.0012109846404838832,0.024081873357121114,0.030274355077523685,0.02584383602613577,0.0012109840671833281,0.02408186195635605,0.03027434074513332,1.7781934045831526e-05,8.332214610644436e-07,1.656960215099968e-05,2.083035698982817e-05,1.7781934045831526e-05,8.332214610644436e-07,1.656960215099968e-05,2.083035698982817e-05,2.965389830508475,34.42754314819622,-77.31,45.96,0.4811274352249313,0.002424786340976588,0.4762474907659468,0.4852199412806407,0.0091409883567598,0.004513130996292126,0.002899850835403407,0.015947225245415655,6.040082356422406e-07,8.199440815454227e-07,7.302049777335728e-08,3.4736744073393666e-06,0.35753169039082505,0.004942075494071439,0.3512836996953583,0.3670570568577806,0.2233145550521964,0.6602836389741371,-1.0009765625,1.74407958984375,33.54157894736841,0.009874559494363151,33.53,33.55,0.10847457627118644,0.00014035087719295453,0,1,0
0,0.029764165729432992,0.0010710171211450942,0.028210194504056162,0.033026569175480386,0.029764151638575004,0.0010710166141075195,0.02821018114887423,0.03302655354014544,2.0479319743091784e-05,7.369164072543168e-07,1.941010537688534e-05,2.2724025807085277e-05,2.0479319743091784e-05,7.369164072543168e-07,1.941010537688534e-05,2.2724025807085277e-05,1.7130847457627123,49.36501570171031,-138.96,102.35,0.48270725551647,0.0025407964295401358,0.4771944176440701,0.4865491313422231,0.02309873844425637,0.008461078287589782,0.0025621506031066723,0.032141804861136124,0.0251163291206183,0.054411343889458896,1.4148839044825223e-07,0.17883611454845777,0.3510818552872343,0.0004356034878920335,0.35060758636424155,0.35195403487926946,-0.01892364435672316,0.9587204514064795,-2.3956298828125,1.177978515625,33.56777777777777,0.014740554623804083,33.55,33.59,0.13559322033898305,-0.0013209494324047473,0,1,0
0,0.02889359901824463,0.00018752288887786796,0.028210194504056162,0.029586301553034506,0.02889358533952762,0.00018752280010136943,0.02821018114887423,0.029586287546380288,1.988032381630566e-05,1.290256624488721e-07,1.941010537688534e-05,2.035693978551389e-05,1.988032381630566e-05,1.290256624488721e-07,1.941010537688534e-05,2.035693978551389e-05,-0.8353559322033891,32.177017197384366,-72.57,38.52,0.48068800615800616,0.0016000856266567222,0.4778792802197691,0.48349759823718774,0.015347845592999843,0.003547052602204524,0.009614329492237226,0.0207972318819684,0.013328165956690688,0.030900009165881096,1.0515852971737516e-07,0.09302478569489209,0.3504355403819897,0.0020144633675829617,0.345670889340702,0.3521828218644072,0.3572539715258123,0.3218187127653873,-0.70037841796875,1.14593505859375,33.56263157894737,0.00964752777885591,33.55,33.57,0.13559322033898305,0.0004912280701755154,0,1,0
0,0.02866421621749459,0.0008243236937785296,0.026834087455077812,0.03096240860201286,0.028664202647371087,0.0008243233035297899,0.02683407475136817,0.03096239394388635,1.972249632122879e-05,5.671782858003353e-07,1.8463270968256787e-05,2.1303774194142445e-05,1.972249632122879e-05,5.671782858003353e-07,1.8463270968256787e-05,2.1303774194142445e-05,-1.263367346938776,40.63758999957921,-102.38,96.12,0.47694752876546687,0.0026859167497366313,0.47129448756459424,0.48086483442418676,0.014986390172584511,0.002719164525647799,0.008830010968779627,0.017944166441324915,0.004567235567671357,0.018828844446103308,7.496014320373945e-08,0.08220054996446519,0.3320437897182936,0.008464769349187296,0.3171977825736876,0.3446143201258905,-0.16445178843609454,0.24654969932519136,-1.17340087890625,0.41046142578125,33.56111111111112,0.01523478800089359,33.55,33.59,0.13605442176870747,0.0011971104231168024,0,1,0
0,0.027620434340208284,0.0004679700000139145,0.026834087455077812,0.028210194504056162,0.027620421264228718,0.00046796977846902236,0.02683407475136817,0.02821018114887423,1.9004319201758815e-05,3.21988102995358e-07,1.8463270968256787e-05,1.941010537688534e-05,1.9004319201758815e-05,3.21988102995358e-07,1.8463270968256787e-05,1.941010537688534e-05,0.7699322033898318,31.12137620582606,-70.52,43.25,0.46784555337402345,0.0014863708835579522,0.46558617387040774,0.4702180225354715,0.007958215665479147,0.004380414151766105,0.0026394987315316487,0.014689531942546906,0.00808674057528936,0.03333899383650926,1.789584143097045e-07,0.14554693357729798,0.29853770467370944,0.01005320708294574,0.2825519048001212,0.3152377152427106,0.14353629930989178,0.3390590400979191,-1.22222900390625,0.59661865234375,33.58000000000001,0.016666666666669272,33.55,33.59,0.13559322033898305,0.00030959752321986267,0,1,0
0,0.026968908753795314,0.00034549998276255117,0.026146033930588636,0.027522140979566984,0.026968895986258987,0.0003454998191970322,0.02614602155261514,0.027522127950121197,1.8556035150183206e-05,2.3772225576711114e-07,1.7989853763942512e-05,1.8936688172571062e-05,1.8556035150183206e-05,2.3772225576711114e-07,1.7989853763942512e-05,1.8936688172571062e-05,-0.5042372881355917,30.79033944927078,-68.79,44.4,0.46188221102549104,0.0019240121357979787,0.45823831295905854,0.4650717438349763,0.009532123293426785,0.002100032386849214,0.005705931125890959,0.012188172379388363,0.00645117621481858,0.019656771134565994,8.948899035687852e-08,0.07891320499099967,0.26857358902294115,0.0068745919503884504,0.2581692303645881,0.2808754211276171,0.11258563096115075,0.3070502769717206,-1.263427734375,0.66986083984375,33.586842105263166,0.014886458551295738,33.57,33.61,0.13559322033898305,0.0014035087719300688,0,1,0
0,0.026571971826701016,0.00039589439850935593,0.025457980406099465,0.027522140979566984,0.02657195924708129,0.00039589421108626895,0.02545796835386211,0.027522127950121197,1.8282921557089437e-05,2.7239627830571455e-07,1.7516436559628233e-05,1.8936688172571062e-05,1.8282921557089437e-05,2.7239627830571455e-07,1.7516436559628233e-05,1.8936688172571062e-05,1.770610169491527,31.985154113986848,-64.71,41.05,0.456946826905908,0.0020458756775835404,0.45320148275681227,0.46078464326883206,0.006359024380200497,0.00163602156949408,0.0033108091123281776,0.009467540802561783,0.002018826560171551,0.00832284783455577,6.981724201549078e-08,0.036334807267593305,0.24930269336605582,0.004802362221490578,0.2413139585799286,0.2571938572905186,-0.01594384856524395,0.29436540001692135,-1.361083984375,0.30670166015625,33.596666666666685,0.018856180831641426,33.57,33.63,0.13559322033898305,-0.0029721362229102708,0,1,0
0,0.026932380815719147,0.0003404981893548807,0.026146033930588636,0.027522140979566984,0.026932368065475776,0.000340498028157294,0.02614602155261514,0.027522127950121197,1.8530901997444513e-05,2.342807574427258e-07,1.7989853763942512e-05,1.8936688172571062e-05,1.8530901997444513e-05,2.342807574427258e-07,1.7989853763942512e-05,1.8936688172571062e-05,-1.0985374149659868,32.05709287572966,-75.8,36.85,0.4521702730461672,0.0016699462997061543,0.4494654083732563,0.4556042579293012,0.004779336167668634,0.0012651018640494995,0.0029451238363680087,0.00655246991192511,0.005976990468824855,0.014493190472274578,2.2736585886251603e-07,0.0535549674921882,0.22968110911400524,0.00682524599456532,0.21802493863723027,0.24029984413431604,-0.0006273846293604651,0.4544412341420249,-1.25274658203125,0.80413818359375,33.59631578947369,0.013062814364199808,33.57,33.61,0.13605442176870747,0.0018596491228068594,0,1,0
0,0.02804283013323444,0.0019339435825118996,0.024081873357121114,0.033026569175480386,0.028042816857285664,0.0019339426669503874,0.02408186195635605,0.03302655354014544,1.9294949840700778e-05,1.330655438200179e-06,1.656960215099968e-05,2.2724025807085277e-05,1.9294949840700778e-05,1.330655438200179e-06,1.656960215099968e-05,2.2724025807085277e-05,0.6746440677966106,39.43540479030242,-82.04,76.39,0.4491483763095604,0.0014349002527840292,0.44554381441827173,0.4504780623423496,0.014249420244994426,0.004364004852240484,0.006964493141960563,0.024426828735124615,0.019245426152166727,0.04772820532729858,1.5550468529523798e-07,0.20139774801023555,0.20534018855705072,0.0067345404320695345,0.1947279553887678,0.21665245405946637,-0.10791935981374108,0.434641276281843,-1.66473388671875,0.58746337890625,33.60222222222224,0.009749960430433751,33.59,33.61,0.13559322033898305,0.000928792569659258,0,1,0
0,0.029488008192393184,0.004191033412957227,0.013761070489783492,0.043347372042818,0.02948799423227273,0.004191031428851312,0.013761063975060599,0.04334735152144089,2.028930875632614e-05,2.8836525806956325e-06,9.468344086285531e-06,2.9825283871799426e-05,2.028930875632614e-05,2.8836525806956325e-06,9.468344086285531e-06,2.9825283871799426e-05,-1.9178644067796622,85.31628114446032,-225.37,196.91,0.450448447304307,0.003936538346400094,0.444588670021245,0.45758219728087596,0.03960110389095985,0.01260973017318455,0.020885408363784413,0.05807118054834032,0.0254657635456448,0.07723465135386909,5.2369050540512774e-08,0.3128407556780717,0.18648049595644023,0.003816561579944781,0.18118375169575807,0.19363342482602725,1.0387182753536592,2.036752784307686,-2.22930908203125,4.14276123046875,33.59444444444446,0.01065740338513816,33.57,33.61,0.13559322033898305,-0.0010319917440659667,0,1,0
0,0.02719671025852485,0.0008095687811473392,0.023393819832631935,0.029586301553034506,0.02719669738314342,0.0008095683978838228,0.02339380875760302,0.029586287546380288,1.8712774629989988e-05,5.570261257733297e-07,1.6096184946685404e-05,2.035693978551389e-05,1.8712774629989988e-05,5.570261257733297e-07,1.6096184946685404e-05,2.035693978551389e-05,1.3935593220338962,39.32555290215306,-82.64,93.35,0.4427382463470265,0.0010924910921260628,0.4402900160229432,0.4453476721270161,0.01228250149336282,0.002239135831429976,0.00833922653309881,0.018521538805074608,0.005697118161010513,0.014177238769304224,1.808453689577938e-07,0.053614913042283746,0.17806396882125808,0.0015214033583063442,0.1756127494841923,0.1807797010727984,-0.47250184468536754,0.7523047768933713,-2.01873779296875,1.56097412109375,33.59947368421054,0.015034586165352574,33.57,33.61,0.13559322033898305,0.0017543859649122306,0,1,0
0,0.026417510831407556,0.0007967537304841363,0.024081873357121114,0.029586301553034506,0.02641749832491222,0.0007967533532874804,0.02408186195635605,0.029586287546380288,1.8176644225508724e-05,5.482086933466545e-07,1.656960215099968e-05,2.035693978551389e-05,1.8176644225508724e-05,5.482086933466545e-07,1.656960215099968e-05,2.035693978551389e-05,-1.3312585034013587,43.85799915537378,-96.69,111.78,0.43958128325738577,0.001407112031281263,0.4373372748815995,0.4414481585469587,0.004272157934504258,0.00207663945655871,0.0014339455630599338,0.007690881053450428,0.0009018599386035148,0.0037146253762215696,1.2619260147950229e-07,0.016217652035496438,0.17140268817510415,0.002819464433128125,0.16608908902825842,0.17530724288819377,-0.34534842441454716,0.3896613925326275,-1.40228271484375,0.48370361328125,33.607777777777784,0.006285393610545839,33.59,33.61,0.13605442176870747,-0.0006604747162021389,0,1,0
0,0.026852809999961896,0.0004317871058043268,0.025457980406099465,0.028210194504056162,0.026852797287388677,0.0004317869013890275,0.02545796835386211,0.02821018114887423,1.8476153069054435e-05,2.9709235868038e-07,1.7516436559628233e-05,1.941010537688534e-05,1.8476153069054435e-05,2.9709235868038e-07,1.7516436559628233e-05,1.941010537688534e-05,0.31589830508474515,33.311109071642726,-74.46,57.74,0.43591651059072606,0.0019726272364309115,0.43111783728487574,0.4389442603123432,0.002440307562432457,0.000920289554560814,0.00098893688640026,0.0037752221769437925,0.0020665345039076063,0.007941665947237551,8.588867174419423e-08,0.03558064535700803,0.1566313094725767,0.005500730720901523,0.14731299721822821,0.16526441415350546,0.20271045694280204,0.3280274919758681,-0.86212158203125,0.84381103515625,33.608947368421056,0.015181268528269001,33.59,33.63,0.13559322033898305,0.002035087719298277,0,1,0
0,0.026829438444777243,0.00016960925094955547,0.026146033930588636,0.027522140979566984,0.02682942574326852,0.00016960917065367504,0.02614602155261514,0.027522127950121197,1.8460072203362748e-05,1.1670013240610943e-07,1.7989853763942512e-05,1.8936688172571062e-05,1.8460072203362748e-05,1.1670013240610943e-07,1.7989853763942512e-05,1.8936688172571062e-05,1.5273220338983051,34.18129108571127,-70.48,45.54,0.43145788307236305,0.001718522519849503,0.42856945827962717,0.43434871768884525,0.0010653356518205588,0.00045529576005014715,0.0004316443731058916,0.00188854025396959,0.0010090711261500974,0.004158352355762389,8.380139165931055e-08,0.01815439686044475,0.13739927751130795,0.005247415390005472,0.1291311089916775,0.14623304893376982,0.25409126814351923,0.44308763983668586,-0.909423828125,0.9857177734375,33.61777777777778,0.009749960430437214,33.61,33.63,0.13559322033898305,-0.000928792569659588,0,1,0
0,0.02713364817322276,0.0003854639627122501,0.026146033930588636,0.028210194504056162,0.027133635327695974,0.0003854637802271087,0.02614602155261514,0.02821018114887423,1.8669384581019462e-05,2.652195869886968e-07,1.7989853763942512e-05,1.941010537688534e-05,1.8669384581019462e-05,2.652195869886968e-07,1.7989853763942512e-05,1.941010537688534e-05,-2.3174576271186424,34.47072131205884,-72.9,43.62,0.4285738072835578,0.0011720348473390687,0.42666965741899443,0.4305705763502175,0.0037042763950478116,0.0007000421439667625,0.002255197577882895,0.004515960329518695,0.003736984762740908,0.008839500359171125,2.7039172877108e-07,0.03309549663539557,0.12126424411535452,0.0040781134242660715,0.11481983383832939,0.12826222369570311,-0.012935894002985423,0.22234052450058603,-1.05438232421875,0.39825439453125,33.63105263157894,0.007877173445839311,33.61,33.65,0.13559322033898305,0.0009122807017543166,0,1,0
0,0.02696982590548726,0.00028532691564378386,0.026146033930588636,0.027522140979566984,0.026969813137516733,0.0002853267805652098,0.02614602155261514,0.027522127950121197,1.8556666199039856e-05,1.9632000405779622e-07,1.7989853763942512e-05,1.8936688172571062e-05,1.8556666199039856e-05,1.9632000405779622e-07,1.7989853763942512e-05,1.8936688172571062e-05,0.6510884353741516,34.46261134110359,-68.48,45.74,0.4255285321777977,0.001655002336777192,0.42302799325064355,0.42893038204721395,0.0020587065145538388,0.0011284504830457568,0.0006378123208421393,0.004214318822892157,2.7750856437301476e-07,2.7202916946480916e-07,1.1481939113378026e-07,1.270770547338873e-06,0.10865746163158034,0.003347595341009591,0.10314739891486108,0.11415718024359306,0.043968408930094606,0.3354798859724249,-1.0711669921875,0.76751708984375,33.63666666666666,0.009428090415818756,33.63,33.65,0.13605442176870747,-0.0008255933952526737,0,1,0
0,0.026922418650789284,0.0002564551853378182,0.026146033930588636,0.027522140979566984,0.026922405905262157,0.00025645506392760756,0.02614602155261514,0.027522127950121197,1.8524047501243056e-05,1.7645472707180318e-07,1.7989853763942512e-05,1.8936688172571062e-05,1.8524047501243056e-05,1.7645472707180318e-07,1.7989853763942512e-05,1.8936688172571062e-05,1.9900000000000013,35.566455839975795,-75.57,44.57,0.42249648683928553,0.001482072479539827,0.419612407647863,0.4250857113356318,0.0007584177990919382,0.0005186678459763925,0.0002075963598841117,0.0015485885834581794,0.0008821223018970639,0.00264737504105499,7.969315481311245e-08,0.010601006017683812,0.09652895150335175,0.0037123883536358923,0.09031155882062042,0.10248112960775485,-0.045983731432283584,0.301758945752347,-1.23748779296875,0.4791259765625,33.62555555555556,0.00831479419283228,33.61,33.63,0.13559322033898305,-0.0008255933952529671,0,1,0
0,0.02695578399682422,0.0002625332096968187,0.026834087455077812,0.027522140979566984,0.026955771235501372,0.0002625330854091695,0.02683407475136817,0.027522127950121197,1.8547004623441607e-05,1.8063672919428138e-07,1.8463270968256787e-05,1.8936688172571062e-05,1.8547004623441607e-05,1.8063672919428138e-07,1.8463270968256787e-05,1.8936688172571062e-05,-0.41650847457627244,35.35384429046345,-72.53,43.65,0.4199131605830805,0.001301779137720812,0.417938868484266,0.4219041600072208,0.002769103464676449,0.0010315566921203726,0.0012261959906193236,0.004275979974182768,0.0020291859057693976,0.005940799445356002,1.635134403155103e-07,0.02098652396681469,0.08215606210100407,0.004613897452654994,0.07437230325976996,0.08953998372506028,0.27871900989163306,0.26705934082782223,-0.7171630859375,0.7720947265625,33.635263157894734,0.008806947647725358,33.63,33.65,0.13559322033898305,0.0012280701754383522,0,1,0
0,0.026880893817287997,0.00022212072491369813,0.026146033930588636,0.027522140979566984,0.026880881091419437,0.00022212061975800115,0.02614602155261514,0.027522127950121197,1.8495476220250932e-05,1.5283080293349778e-07,1.7989853763942512e-05,1.8936688172571062e-05,1.8495476220250932e-05,1.5283080293349778e-07,1.7989853763942512e-05,1.8936688172571062e-05,-2.3617006802721083,36.30745210091267,-70.37,48.43,0.41565152368847635,0.0015063926054501705,0.4127252123454213,0.41835528707687863,0.0004620147306713615,0.0002862518249090397,0.0001310850696322081,0.0010854760548049715,2.5205053165825313e-07,1.6796631287353794e-07,1.111944342453014e-07,7.241997989977829e-07,0.06524207505126176,0.0050874126336208575,0.05682267478566755,0.07345176920094754,0.03695192171385507,0.3406760985815611,-1.03302001953125,0.592041015625,33.642222222222216,0.009749960430433753,33.63,33.65,0.13605442176870747,-0.001589267285861397,0,1,0
0,0.026815491413875438,0.00015888464568147146,0.026146033930588636,0.027522140979566984,0.026815478718969474,0.0001588845704627995,0.02614602155261514,0.027522127950121197,1.8450475908680704e-05,1.0932103693943017e-07,1.7989853763942512e-05,1.8936688172571062e-05,1.8450475908680704e-05,1.0932103693943017e-07,1.7989853763942512e-05,1.8936688172571062e-05,1.6219322033898305,34.688638534615826,-69.49,43.24,0.4121397113075651,0.0016819832173797537,0.4102642903453768,0.4165049398546056,0.002438440201353137,0.002272064176088847,0.00011575387523709062,0.0060227761716611285,0.0037367814882460896,0.012328324992423001,7.975199822068957e-08,0.0549514365318194,0.046997744044152745,0.005287485147534699,0.03849315434653344,0.05581956888972012,0.048837590750038774,0.6689167065147809,-1.72576904296875,1.13067626953125,33.63631578947368,0.015963948303265713,33.61,33.65,0.13559322033898305,0.0008070175438596132,0,1,0
0,0.026754516639320592,0.0002342189616692532,0.026146033930588636,0.027522140979566984,0.026754503973281104,0.00023421885078604555,0.02614602155261514,0.027522127950121197,1.8408522039866685e-05,1.6115502949159697e-07,1.7989853763942512e-05,1.8936688172571062e-05,1.8408522039866685e-05,1.6115502949159697e-07,1.7989853763942512e-05,1.8936688172571062e-05,0.8562711864406782,35.56255197122556,-72.5,48.08,0.4091059958641232,0.0019700072870050124,0.4052738538707122,0.4119784618418056,0.005214525425122323,0.0018294266340764553,0.002537616230962819,0.0077838680134214135,0.003476095547094407,0.0112460816365395,8.641744858595146e-08,0.04766685257536711,0.030780354029553845,0.003996171796581642,0.02449437972113655,0.03760823409393926,0.09814199364189032,0.3618247017731949,-1.38397216796875,0.66070556640625,33.64777777777776,0.010304020550548732,33.63,33.66,0.13559322033898305,0.0014035087719295452,0,1,0
0,0.026662074073955565,0.00032857026248835547,0.026146033930588636,0.027522140979566984,0.026662061451679923,0.0003285701069376504,0.02614602155261514,0.027522127950121197,1.8344916667178205e-05,2.260737130930746e-07,1.7989853763942512e-05,1.8936688172571062e-05,1.8344916667178205e-05,2.260737130930746e-07,1.7989853763942512e-05,1.8936688172571062e-05,-2.289423728813558,35.37888949220722,-74.82,44.16,0.4058821194813919,0.00168018026311611,0.40311681666740695,0.40974427828354093,0.0016143300847607344,0.0008260060237070093,0.0005003134976892105,0.002904963536033316,3.1438833239765056e-07,3.666297633282165e-07,1.0173627059545387e-07,1.6503399020012521e-06,0.018036237069767595,0.003462372614833805,0.012398297743585085,0.0238173241293273,-0.07094626982809592,0.40861410418092636,-1.4556884765625,0.57525634765625,33.64789473684209,0.010041465278071114,33.63,33.66,0.13559322033898305,0.0008070175438594885,0,1,0
0,0.026651542642458274,0.00030377293013993096,0.026146033930588636,0.026834087455077812,0.026651530025168388,0.00030377278632870127,0.02614602155261514,0.02683407475136817,1.833767048547952e-05,2.0901183732758325e-07,1.7989853763942512e-05,1.8463270968256787e-05,1.833767048547952e-05,2.0901183732758325e-07,1.7989853763942512e-05,1.8463270968256787e-05,0.9067687074829943,34.46823006445843,-70.78,42.08,0.40302662479897333,0.0007597169084825643,0.40132334104673195,0.40395858792078104,0.001130377756631328,0.0008541193662708131,0.00018513999888892483,0.0022721524573122397,0.0013229551349890037,0.0054516887893142785,1.3227433873219674e-07,0.023800843560011165,0.006265489559816848,0.0034269938327201673,0.0005490897083171853,0.011774571699504577,0.14772249510507135,0.52001468446061,-1.49993896484375,0.80413818359375,33.652777777777764,0.0044790320823871925,33.65,33.66,0.13605442176870747,0.0003405572755417279,0,1,0
0,0.02679196172908871,0.0002566252451202484,0.026146033930588636,0.027522140979566984,0.02679194904532209,0.0002566251236295284,0.02614602155261514,0.027522127950121197,1.8434286241462018e-05,1.7657173719368893e-07,1.7989853763942512e-05,1.8936688172571062e-05,1.8434286241462018e-05,1.7657173719368893e-07,1.7989853763942512e-05,1.8936688172571062e-05,1.8501016949152538,34.49991475778952,-72.27,43.98,0.40037516007096885,0.0011165640749250959,0.39788371851267124,0.40193414081315293,0.0015727353951190777,0.0012834970853366102,0.0004979791941633209,0.004980298259307541,0.0030826691302371107,0.009762381200815027,1.0430147027312708e-07,0.04092377707877708,-0.0061356098924250525,0.0036586856536874107,-0.012115432731782172,-0.00014777136166593818,0.17732530878524472,0.5756966384071156,-1.678466796875,1.00250244140625,33.65333333333332,0.004714045207909379,33.65,33.66,0.13559322033898305,0.0,0,1,0
0,0.02677365032117002,0.00021054422738642686,0.026146033930588636,0.027522140979566984,0.026773637646072324,0.0002105441277112378,0.02614602155261514,0.027522127950121197,1.8421687024634572e-05,1.448655605503834e-07,1.7989853763942512e-05,1.8936688172571062e-05,1.8421687024634572e-05,1.448655605503834e-07,1.7989853763942512e-05,1.8936688172571062e-05,-2.8925084745762693,37.30912681285994,-73.51,48.35,0.3983295203236623,0.0011749988496726428,0.3961420219457197,0.40004411712092874,0.004247934326328462,0.0010928392582187027,0.00206182346462804,0.0055789292282361225,0.0015485506172770822,0.006565610049332453,1.599540992713866e-07,0.029404073840567285,-0.018792169524841633,0.003561355582628734,-0.024495278170880402,-0.012809111100767379,-0.10202090734287764,0.7186890126698157,-1.7852783203125,1.019287109375,33.65999999999999,0.011239029738980753,33.65,33.68,0.13559322033898305,0.000842105263157802,0,1,0
0,0.026759197275541616,0.00021428932075249365,0.026146033930588636,0.026834087455077812,0.026759184607286237,0.0002142892193043136,0.02614602155261514,0.02683407475136817,1.8411742565066094e-05,1.4744238280062223e-07,1.7989853763942512e-05,1.8463270968256787e-05,1.8411742565066094e-05,1.4744238280062223e-07,1.7989853763942512e-05,1.8463270968256787e-05,-0.29189830508474496,35.33575087578811,-73.89,41.98,0.3950715435152929,0.0014180513919276447,0.39183439984727425,0.39712357620391586,0.0011760647038786477,0.0006049541535166483,0.00041547383493781444,0.002383789456076637,0.001316919961540502,0.005424552209633939,7.39615029707319e-08,0.023682915253140778,-0.029860388711484234,0.0028445854747631786,-0.03441554683633974,-0.025089586709587358,0.13505993072860106,0.6662218147838438,-1.7059326171875,1.0986328125,33.664444444444435,0.00831479419283228,33.66,33.68,0.13559322033898305,0.0004953560371517803,0,1,0
0,0.02679196172908872,0.0001834427266092024,0.026146033930588636,0.027522140979566984,0.026791949045322096,0.00018344263976432097,0.02614602155261514,0.027522127950121197,1.8434286241462014e-05,1.262182950775407e-07,1.7989853763942512e-05,1.8936688172571062e-05,1.8434286241462014e-05,1.262182950775407e-07,1.7989853763942512e-05,1.8936688172571062e-05,2.97091836734694,36.83430961485311,-76.67,46.97,0.39355632705960125,0.0009067344087125174,0.3920591725427601,0.3954688063769473,0.002095008273297569,0.0005066465977483018,0.0010848945972390168,0.0028104726337415563,0.0009194776663289455,0.0038983701774525114,1.0040865633734186e-07,0.017458861267150648,-0.03930136009163522,0.0026171837107074906,-0.0435333911358671,-0.03492423207092721,0.08391908157703488,0.521196068759146,-1.54266357421875,0.9246826171875,33.667368421052615,0.00964752777885591,33.66,33.68,0.13605442176870747,0.0014736842105265461,0,1,0
0,0.026815491413875434,0.0001950369255402444,0.026146033930588636,0.027522140979566984,0.026815478718969464,0.0001950368332064741,0.02614602155261514,0.027522127950121197,1.8450475908680704e-05,1.341957169623754e-07,1.7989853763942512e-05,1.8936688172571062e-05,1.8450475908680704e-05,1.341957169623754e-07,1.7989853763942512e-05,1.8936688172571062e-05,-0.7565762711864393,37.23704092824295,-77.15,48.1,0.39095209393199354,0.0006164282913278369,0.3897779566801339,0.3918132009166369,0.00041230423930784703,0.0002538791182221916,0.00011781713750879253,0.0009628996708766849,8.94305871424717e-07,1.3984142148746872e-06,1.2312317573467957e-07,6.413868252460198e-06,-0.04784895979033686,0.002362747766268629,-0.051747000679050026,-0.043988944029660054,0.05521712153733905,0.37286504615329086,-1.38092041015625,0.59967041015625,33.66666666666665,0.009428090415822111,33.66,33.68,0.13559322033898305,-0.0009907120743035606,0,1,0
0,0.02682472618263582,0.00013869223507677558,0.026146033930588636,0.027522140979566984,0.026824713483357958,0.00013869216941753178,0.02614602155261514,0.027522127950121197,1.845682991785793e-05,9.542759080972989e-08,1.7989853763942512e-05,1.8936688172571062e-05,1.845682991785793e-05,9.542759080972989e-08,1.7989853763942512e-05,1.8936688172571062e-05,-1.8857966101694914,38.553957390482054,-75.12,49.02,0.3895280215256559,0.0008380909626936316,0.38782791415093537,0.39078180630808224,0.0007268254401898129,0.00024268041562605443,0.00017310156045966435,0.0010564464416493425,0.0007209014961844082,0.002043653416007842,1.1117368907583025e-07,0.0070166921181650365,-0.05643535705767122,0.0026406985503999295,-0.06088422826166051,-0.05221765178544566,-0.06027908159493291,0.5947170063034364,-1.8646240234375,0.6378173828125,33.671111111111095,0.00993807990000062,33.66,33.68,0.13559322033898305,0.0,0,1,0
0,0.02687127953748266,0.00030753826865590974,0.026146033930588636,0.028210194504056162,0.026871266816165647,0.0003075381230621057,0.02614602155261514,0.02821018114887423,1.8488861087408896e-05,2.1160258931138462e-07,1.7989853763942512e-05,1.941010537688534e-05,1.8488861087408896e-05,2.1160258931138462e-07,1.7989853763942512e-05,1.941010537688534e-05,1.3729491525423725,36.357827578359974,-74.11,45.08,0.3870324780421927,0.0011276569884219204,0.3840167712384394,0.3880946509857532,0.0010005448325148506,0.0011220868331605664,0.00015980456394723146,0.0035033041430041585,0.0020429194477539006,0.006199982576550146,8.613537804801757e-08,0.02566933194286246,-0.0666119909462541,0.0031204479644002556,-0.07161657641033173,-0.06144666584096228,0.2895255834233968,0.6473639560935005,-1.5899658203125,1.10015869140625,33.6757894736842,0.008153649149911627,33.66,33.68,0.13559322033898305,0.000350877192982511,0,1,0
0,0.02783106297015394,0.004606302546920559,0.009632749342848445,0.03715489032241543,0.027831049794459283,0.0046063003662192336,0.00963274478254242,0.037154872732663616,1.9149242835732573e-05,3.169379701394397e-06,6.627840860399872e-06,2.5564529032970932e-05,1.9149242835732573e-05,3.169379701394397e-06,6.627840860399872e-06,2.5564529032970932e-05,-5.643197278911565,34.46491462513063,-99.59,42.73,0.38531846000231534,0.0012434363704380065,0.3830023171544035,0.38713337416449345,0.0018010058827215754,0.000919906231296371,0.0005876922370453396,0.0034425076836320243,3.099409927880542e-05,0.00012456505922656924,7.376048938301238e-08,0.0005445507675697139,-0.07544769175799271,0.0017667858564394672,-0.07777265890511459,-0.07211913059388705,-0.3117686761520045,1.3965287996626223,-4.3487548828125,1.75323486328125,33.67555555555555,0.00831479419283228,33.66,33.68,0.16326530612244897,-0.0004953560371517803,0,1,0
0,0.027367679984273464,0.004096051473615777,0.011696909916315968,0.03577878327343708,0.027367667027952132,0.004096049534475918,0.01169690437880151,0.03577876633515756,1.8830410840990332e-05,2.8182999844470167e-06,8.048092473342702e-06,2.461769462434238e-05,1.8830410840990332e-05,2.8182999844470167e-06,8.048092473342702e-06,2.461769462434238e-05,5.042983050847445,91.03954891340166,-223.43,334.89,0.385896377303019,0.0017993815845211635,0.38241761898951726,0.3884616891555705,0.005275774471059759,0.005289742941069108,0.0007621379056928085,0.01483530953525506,0.012923105025797606,0.03657178808936574,9.633757042798452e-08,0.15057137052401312,-0.07701610121877402,0.0009954310729884052,-0.07799349995452143,-0.07489753644661232,0.8267679522114415,3.023493308333297,-4.68902587890625,6.158447265625,33.67999999999999,7.105427357601002e-15,33.68,33.68,0.13559322033898305,0.0,0,1,0
0,0.02662953100185131,0.0007219001397987211,0.02476992688161029,0.028210194504056162,0.02662951839498215,0.0007218997980390181,0.02476991515510908,0.02821018114887423,1.832252531292012e-05,4.967054652199132e-07,1.7043019355313955e-05,1.941010537688534e-05,1.832252531292012e-05,4.967054652199132e-07,1.7043019355313955e-05,1.941010537688534e-05,2.0140677966101697,34.983582305285125,-82.27,64.16,0.38862829834594403,0.0007264303161180512,0.3875344175001183,0.3899510711476215,0.011389348704874786,0.004139415414041819,0.005616877707594877,0.017464378385035013,0.00114916178872699,0.004393011735314959,2.400086783899136e-07,0.01921253940209733,-0.07115762035618738,0.002095720885863355,-0.07453921533154675,-0.06776229096824271,-0.3615329326993,0.49905591138361305,-1.947021484375,0.45013427734375,33.67999999999999,7.105427357601002e-15,33.68,33.68,0.13559322033898305,0.0,0,1,0
0,0.026117950113262595,0.0004237462461577275,0.02476992688161029,0.027522140979566984,0.026117937748584355,0.000423746045549108,0.02476991515510908,0.027522127950121197,1.797053061274605e-05,2.915598220990113e-07,1.7043019355313955e-05,1.8936688172571062e-05,1.797053061274605e-05,2.915598220990113e-07,1.7043019355313955e-05,1.8936688172571062e-05,-1.0099322033898288,41.63218155480627,-83.93,58.48,0.3876312933685939,0.0011510657535647164,0.38490900481021184,0.38930718316179264,0.0021555821222096192,0.0013573502521042932,0.0005766089132439051,0.005068511193989521,1.6451423633211042e-07,8.131288571528742e-08,6.32815407158871e-08,3.130842245319121e-07,-0.06512703813520443,0.0011168405309873934,-0.06739851648347425,-0.0638773852352938,0.0015187795937209212,0.8353518075955161,-2.23846435546875,0.8941650390625,33.686315789473674,0.012230473724865994,33.68,33.71,0.13559322033898305,-0.00010526315789474083,0,1,0
0,0.02582307003133858,0.000434467939455635,0.02476992688161029,0.027522140979566984,0.025823057806261682,0.0004344677337711844,0.02476991515510908,0.027522127950121197,1.776763752518277e-05,2.9893691397624425e-07,1.7043019355313955e-05,1.8936688172571062e-05,1.776763752518277e-05,2.9893691397624425e-07,1.7043019355313955e-05,1.8936688172571062e-05,0.8770068027210901,36.64718315529367,-75.81,60.86,0.3872143148206419,0.0009056425219134108,0.3853916932500842,0.38859566158455194,0.00021532211229511266,0.0001340922372279333,6.0927819002077773e-05,0.0005089157441157267,2.526588391881918e-07,1.8387629395341926e-07,9.379651611657325e-08,8.348066381546129e-07,-0.06533803598119764,0.0012986279495764642,-0.06802925495777823,-0.06388589593736804,0.117438721006029,0.3339148741907587,-1.02691650390625,0.67901611328125,33.69666666666667,0.025819888974716477,33.66,33.73,0.13605442176870747,0.0037977296181632967,0,1,0
0,0.025848497271350048,0.0004941090976410203,0.024081873357121114,0.027522140979566984,0.025848485034235456,0.0004941088637214399,0.02408186195635605,0.027522127950121197,1.778513281072556e-05,3.399731842157631e-07,1.656960215099968e-05,1.8936688172571062e-05,1.778513281072556e-05,3.399731842157631e-07,1.656960215099968e-05,1.8936688172571062e-05,-3.2990508474576274,45.34761296706778,-110.22,101.25,0.3861212675133722,0.0005109532734725333,0.3852368376660887,0.38710304470186724,0.0031728602787564055,0.0016448037416908346,5.395707840315257e-05,0.005518931042118105,0.004401006448439186,0.008605023447043043,1.3114471739128497e-07,0.02704911739625001,-0.0745024819143565,0.004106570386768418,-0.08189681118706535,-0.06852975288315055,0.0845146593454274,0.2809123217949395,-1.13677978515625,0.57830810546875,33.68999999999999,0.014142135623731487,33.68,33.71,0.08135593220338982,-0.0002476780185758608,0,1,0
0,0.0260430599337263,0.0013485756935536406,0.023393819832631935,0.03096240860201286,0.02604304760450244,0.0013485750551151569,0.02339380875760302,0.03096239394388635,1.7919002209555366e-05,9.278913804305291e-07,1.6096184946685404e-05,2.1303774194142445e-05,1.7919002209555366e-05,9.278913804305291e-07,1.6096184946685404e-05,2.1303774194142445e-05,1.6843050847457612,51.75693408494194,-121.04,110.36,0.38239093087468,0.0011823429499556956,0.37974577863943854,0.38526830876569923,0.005857724882118271,0.002103065426472725,0.0026426553613438496,0.008752717787986376,0.00456954021236165,0.017828314232549967,1.2850065886360618e-07,0.0799352647719379,-0.09343326301559789,0.006606369139657054,-0.10455495690809646,-0.0829437502728955,-0.1998678922061589,0.5205562446080543,-1.59454345703125,0.823974609375,33.70368421052632,0.012230473724865992,33.68,33.71,0.13559322033898305,-0.0009473684210526674,0,1,0
0,0.031201121049284575,0.005561848587022027,0.015825231063251018,0.04816374671424223,0.031201106278147584,0.005561845953949091,0.01582522357131969,0.0481637239127121,2.1468020979312687e-05,3.82684589958627e-06,1.088859569922836e-05,3.313920430199936e-05,2.1468020979312687e-05,3.82684589958627e-06,1.088859569922836e-05,3.313920430199936e-05,-0.3507482993197292,39.411024970634365,-87.78,153.82,0.3777887312311517,0.0023322298417553706,0.372878593058804,0.3814871340835354,0.008525960580980516,0.006724882963864897,0.0018682988239488347,0.018925306855768126,0.010917049810013978,0.04500722289723826,4.268382056138442e-08,0.19648658357408047,-0.11655530751184334,0.006451381921954159,-0.1269166076380361,-0.10583741446149778,0.20230579612864455,0.92628479271408,-1.6571044921875,3.375244140625,33.718888888888884,0.009938079899997086,33.71,33.73,0.13605442176870747,-0.0013209494324042778,0,1,0
0,0.0321479062286665,0.005403444095558222,0.018577445161207715,0.043347372042818,0.032147891009305436,0.005403441537476642,0.018577436366331808,0.04334735152144089,2.2119459242116374e-05,3.7178552341357934e-06,1.2782264516485466e-05,2.9825283871799426e-05,2.2119459242116374e-05,3.7178552341357934e-06,1.2782264516485466e-05,2.9825283871799426e-05,2.179932203389831,46.112291181001915,-144.43,131.04,0.37419488282602975,0.0019752751478288384,0.3713266277316111,0.3787856453832223,0.011642420657551817,0.0016774728250853659,0.009247894571702218,0.01590523526872544,0.006045986296050497,0.017691816292327384,2.107175634535885e-07,0.062190551963922036,-0.13781266890795618,0.0057701218096133525,-0.14703304069298706,-0.12806979143217728,0.45884986669194905,2.046916495011205,-3.7078857421875,3.62701416015625,33.70578947368421,0.02301390643060451,33.68,33.73,0.21694915254237288,-0.00021052631578958138,0,1,0
0,0.028172749414288007,0.0077955093431164605,0.015137177538761842,0.043347372042818,0.028172736076833238,0.0077955056525908385,0.01513717037256666,0.04334735152144089,1.9384341175290015e-05,5.363722600162457e-06,1.0415178494914085e-05,2.9825283871799426e-05,1.9384341175290015e-05,5.363722600162457e-06,1.0415178494914085e-05,2.9825283871799426e-05,-0.6899661016949128,70.14756780396888,-170.23,140.27,0.37059738223849875,0.0015341647157564463,0.3685763854545172,0.3743492175832768,0.012648678491587753,0.004391785833881165,0.006222482765776529,0.018875690008614186,0.010827918684305939,0.03083098391337788,5.481206016844098e-08,0.10817705424161964,-0.15564320251722696,0.004547205626622813,-0.16289246285413134,-0.14799156550430048,-0.31134084334034673,1.2105399403922807,-3.44390869140625,1.6143798828125,33.732222222222234,0.011331154474650856,33.71,33.75,0.16271186440677965,-0.0011558307533539192,0,1,0
0,0.02869834058561932,0.000646112085640888,0.02476992688161029,0.030274355077523685,0.02869832699934095,0.0006461117797605297,0.02476991515510908,0.03027434074513332,1.9745975690757017e-05,4.445592768162449e-07,1.7043019355313955e-05,2.083035698982817e-05,1.9745975690757017e-05,4.445592768162449e-07,1.7043019355313955e-05,2.083035698982817e-05,-0.55806779661017,44.125857633136285,-90.23,94.05,0.3666183798952197,0.0014779378200328803,0.36287112223807666,0.3685488609560247,0.011518144768739306,0.0020892180165190334,0.0077526904240002095,0.014955298411455539,0.007099941819300557,0.020665071504771336,1.1112183681549759e-07,0.06839559016671062,-0.17042212735864679,0.00398349881045888,-0.17678676299142254,-0.16369133843709838,0.1418319588559437,0.6039373172323891,-1.49383544921875,1.10015869140625,33.72789473684211,0.01435598073366877,33.71,33.75,0.16271186440677965,0.0011578947368418,0,1,0
0,0.03414992186852389,0.003952225677618485,0.028210194504056162,0.04059515794486131,0.03414990570137492,0.003952223806568178,0.02821018114887423,0.04059513872642877,2.3496951854945334e-05,2.7193402322971127e-06,1.941010537688534e-05,2.7931615054542318e-05,2.3496951854945334e-05,2.7193402322971127e-06,1.941010537688534e-05,2.7931615054542318e-05,-1.4431632653061228,28.25393482669329,-74.53,57.51,0.36377844229916195,0.001320201195021285,0.3616508916505237,0.36620975022541025,0.008826878381356274,0.0026663182831629635,0.0043157322920692655,0.012653404473299646,0.0056417847524207945,0.020981012008448242,1.7791655679277874e-07,0.09164491201651215,-0.18276858836748258,0.003171458016009766,-0.1878458236945444,-0.17744922852563116,0.4114903528104645,0.4716679499156969,-1.0528564453125,1.4923095703125,33.73444444444445,0.00831479419283228,33.73,33.75,0.13605442176870747,0.0006604747162023736,0,1,0
0,0.035544751462386254,0.0008474407891465535,0.033026569175480386,0.037842943846904606,0.03554473463490141,0.0008474403879537888,0.03302655354014544,0.03784292593141665,2.4456668364371543e-05,5.830840696841112e-07,2.2724025807085277e-05,2.6037946237285214e-05,2.4456668364371543e-05,5.830840696841112e-07,2.2724025807085277e-05,2.6037946237285214e-05,-0.2080677966101677,30.846781575307425,-61.03,78.29,0.3598668563691267,0.0012595248290756585,0.35692516010381936,0.3614966315852229,0.0020330626317673953,0.0010764042396174977,0.0006899000967975376,0.00432178865505973,0.003055437076696648,0.012587256159033609,9.871803724470496e-08,0.054954012477548324,-0.1929854044278494,0.0027303030201098937,-0.19735725076351934,-0.18841215155376295,-0.17656544665538706,0.4892344852202423,-1.611328125,0.5401611328125,33.730000000000004,7.105427357601002e-15,33.73,33.73,0.16271186440677965,0.0,0,1,0
0,0.03617859815928882,0.0011971359499087359,0.03371462269996956,0.03853099737139378,0.03617858103173035,0.0011971353831643835,0.03371460673889847,0.03853097913016968,2.489278840522779e-05,8.236928297266873e-07,2.3197443011399553e-05,2.651136344159949e-05,2.489278840522779e-05,8.236928297266873e-07,2.3197443011399553e-05,2.651136344159949e-05,2.343355932203388,25.398834150317725,-58.35,41.48,0.35820679831568836,0.0014834154771679862,0.35577438214311297,0.360502362693528,0.003209061882422625,0.0014873578159156427,0.0011688174319237471,0.0053841554460216535,0.0021622954917165332,0.009172951855729954,8.914015386246588e-08,0.04107983424532593,-0.20195890350647966,0.00243770767680185,-0.20585292739363187,-0.1978436083795432,0.08874661277600612,0.3140681132860846,-1.080322265625,0.56610107421875,33.700526315789475,0.01877111000013323,33.68,33.73,0.13559322033898305,-0.0006315789473682455,0,1,0
0,0.03686469087671248,0.0003842685462298805,0.036466836797926255,0.037842943846904606,0.03686467342434604,0.00038426836431066876,0.03646681953391059,0.03784292593141665,2.536485647060711e-05,2.6439707724355024e-07,2.5091111828656657e-05,2.6037946237285214e-05,2.536485647060711e-05,2.6439707724355024e-07,2.5091111828656657e-05,2.6037946237285214e-05,-0.6642372881355945,26.065174025136347,-70.17,28.6,0.35696606082551463,0.0008581295724092117,0.35497473949016406,0.3582601564464747,0.0038178606813742116,0.0005907784057653984,0.0026168136507095548,0.0045540544004003675,0.0018118237656727068,0.005138974689523425,1.4053952385184587e-07,0.01752512310833118,-0.20953637953353382,0.001982832749822186,-0.2127927153067024,-0.2062568506262067,0.062180867374146756,0.4055311488129749,-1.10321044921875,0.799560546875,33.7188888888889,0.009938079899997088,33.71,33.73,0.13559322033898305,0.0009907120743032085,0,1,0
0,0.03647151743414723,9.818185367332048e-05,0.03577878327343708,0.03715489032241543,0.03647150016791571,9.818180719237449e-05,0.03577876633515756,0.037154872732663616,2.509433235385608e-05,6.755430649806638e-08,2.461769462434238e-05,2.5564529032970932e-05,2.509433235385608e-05,6.755430649806638e-08,2.461769462434238e-05,2.5564529032970932e-05,-1.0393537414965988,25.367586486305186,-65.94,31.21,0.35487021029514254,0.0009407927174075988,0.3532972207512929,0.35659151419351465,0.0025532858354693935,0.0009218924790052621,0.0010006821332111241,0.0036853433147925655,0.0008785570265699528,0.0037235232127790416,1.0173594268414465e-07,0.01667612619277547,-0.21719934891531092,0.0025873643686960364,-0.22172717244902265,-0.21318894105368302,0.11229853667030039,0.3295539494124783,-1.0101318359375,0.68817138671875,33.72789473684211,0.006137844099835938,33.71,33.73,0.13605442176870747,0.0005964912280700568,0,1,0
0,0.03645753877732501,0.00015969874825629658,0.03577878327343708,0.03715489032241543,0.03645752151771123,0.0001596986726522149,0.03577876633515756,0.037154872732663616,2.5084714298868632e-05,1.0988118255496927e-07,2.461769462434238e-05,2.5564529032970932e-05,2.5084714298868632e-05,1.0988118255496927e-07,2.461769462434238e-05,2.5564529032970932e-05,0.2421694915254241,25.101871941238237,-53.39,37.41,0.35190055727315184,0.0013951975275065514,0.34879622550313044,0.3535035043819487,0.0010974264459302082,0.00034302028459952876,0.0005405588180251257,0.0015511766781949534,0.004043580409465345,0.01368536117899515,8.851475341575821e-08,0.058949319669138835,-0.22821549232082694,0.0038245111458996457,-0.23478230280072745,-0.22231616089736786,-0.047498247914161885,0.43746515126958196,-1.24359130859375,0.76751708984375,33.726666666666674,0.007453559924997816,33.71,33.73,0.13559322033898305,-0.000928792569659258,0,1,0
0,0.03824079792569086,0.003581913253986563,0.028210194504056162,0.04953985376322058,0.03824077982185207,0.0035819115582484094,0.02821018114887423,0.04953983031021816,2.6311690879235653e-05,2.4645457053032674e-06,1.941010537688534e-05,3.408603871062791e-05,2.6311690879235653e-05,2.4645457053032674e-06,1.941010537688534e-05,3.408603871062791e-05,2.3561355932203356,55.72512441286312,-184.5,194.15,0.3517847914175873,0.002107124756233504,0.34840619595189537,0.3560488602832235,0.012560085918372665,0.009245060907919163,0.003188783335313711,0.027804334006676243,0.01599803510015868,0.043278095189397646,9.319783011996208e-08,0.1460217171705414,-0.24286036429666627,0.004400312343059737,-0.24997256020875894,-0.23562273084810212,-0.09717240009550497,1.4018439407382282,-3.36151123046875,2.77099609375,33.71055555555556,0.02067532673991924,33.68,33.73,0.16271186440677965,0.0012899896800822954,0,1,0
0,0.031162316044938788,0.00407234992462805,0.015825231063251018,0.05022790728770975,0.031162301292172703,0.004072347996708904,0.01582522357131969,0.050227883508971186,2.1441321084585084e-05,2.8019920655710573e-06,1.088859569922836e-05,3.455945591494219e-05,2.1441321084585084e-05,2.8019920655710573e-06,1.088859569922836e-05,3.455945591494219e-05,-4.018271186440675,64.08868539232404,-180.87,177.74,0.3479061186573693,0.002321291722668314,0.3430555284111792,0.3515361678999146,0.01140339926866935,0.006445727530118934,0.0033238253986760335,0.024144473234275866,0.00044332310546587347,0.0018672439776397992,7.571007859530354e-08,0.008365221913529342,-0.25691588517965475,0.0034712819834010096,-0.26213104561010625,-0.25076318217547583,0.8106970017956149,2.193596908604423,-5.084228515625,4.18853759765625,33.705263157894734,0.010939268258330165,33.68,33.71,0.16271186440677965,0.0012631578947368898,0,1,0
0,0.031229204866610714,0.0006188006433951788,0.029586301553034506,0.033026569175480386,0.031229190082178348,0.0006188003504445164,0.029586287546380288,0.03302655354014544,2.1487344130509197e-05,4.2576756051284475e-07,2.035693978551389e-05,2.2724025807085277e-05,2.1487344130509197e-05,4.2576756051284475e-07,2.035693978551389e-05,2.2724025807085277e-05,3.5346258503401353,25.647447387860513,-58.34,48.83,0.344452597278568,0.0011853832077730483,0.3422769262895674,0.34649693461002284,0.00382836156219952,0.0012321554327178086,0.0020101922070264,0.005638145227617898,0.004227814910095085,0.011618924451651155,1.3375051678699013e-07,0.04601002967534498,-0.2659653060692616,0.0019411867551204184,-0.26900089372829794,-0.26259564171074307,-0.3787208727512407,0.6083440594443766,-2.03857421875,1.00250244140625,33.71888888888889,0.00993807989999709,33.71,33.73,0.16326530612244897,-0.00033023735810106946,0,1,0
0,0.03141643031545129,0.0005703082015589278,0.029586301553034506,0.033026569175480386,0.03141641544238325,0.0005703079315654055,0.029586287546380288,0.03302655354014544,2.1616165138485885e-05,3.924021965878019e-07,2.035693978551389e-05,2.2724025807085277e-05,2.1616165138485885e-05,3.924021965878019e-07,2.035693978551389e-05,2.2724025807085277e-05,-0.1918644067796621,26.855638001287385,-57.09,49.9,0.342956944464752,0.0009583148753838185,0.3413112070066084,0.34450350385941136,0.002663826236412623,0.0011842976429350025,0.0009075745337833922,0.004336907617257071,9.859775424560673e-05,0.0004151822582879906,1.0222343931054478e-07,0.0018600464267382877,-0.2724961040523294,0.0020064377620478383,-0.27596308650003404,-0.26933284172766964,-0.09515729198976426,0.5820255733309488,-1.483154296875,1.019287109375,33.69736842105264,0.014811839241548233,33.68,33.71,0.16271186440677965,-0.00021052631578948166,0,1,0
0,0.03195729680634176,0.000804963749070572,0.030274355077523685,0.033026569175480386,0.031957281677218424,0.0008049633679871563,0.03027434074513332,0.03302655354014544,2.1988309881461708e-05,5.538576202225756e-07,2.083035698982817e-05,2.2724025807085277e-05,2.1988309881461708e-05,5.538576202225756e-07,2.083035698982817e-05,2.2724025807085277e-05,-1.4749491525423737,24.118212864494645,-52.45,28.62,0.3412425504734248,0.0008927659369864269,0.34019964872869113,0.343226595084622,0.0032732523518198215,0.0017579050740985658,0.0005531019347382311,0.005442217121487428,0.003134972251251201,0.012923646998435798,1.0802747401478241e-07,0.05642053369030456,-0.28031166575052,0.002434730771556377,-0.2843456537352962,-0.2763958025465317,0.2059463089088679,0.4177874625094012,-0.9368896484375,1.0833740234375,33.71888888888889,0.00993807989999709,33.71,33.73,0.13559322033898305,0.0,0,1,0
0,0.03031180016729181,0.0003658688996054966,0.029586301553034506,0.03096240860201286,0.030311785817174294,0.00036586872639698714,0.029586287546380288,0.03096239394388635,2.085612119142352e-05,2.517371475211439e-07,2.035693978551389e-05,2.1303774194142445e-05,2.085612119142352e-05,2.517371475211439e-07,2.035693978551389e-05,2.1303774194142445e-05,0.0290169491525428,26.963373903388828,-59.35,47.76,0.339507133468936,0.0009134938273206212,0.3375828406403683,0.34079697985187474,0.004137713781827579,0.002548770877624075,0.0010505210481240512,0.0075959246699110255,0.005026079503976685,0.012600273052411176,8.66604770929924e-08,0.04797208721435127,-0.2889663152794953,0.002456081454494167,-0.29286300969491497,-0.2848252722682832,0.14111634815301255,0.4046339077430971,-1.29852294921875,0.74005126953125,33.71,0.0,33.71,33.71,0.13559322033898305,0.0,0,1,0
0,0.029754804456991066,0.00030657273983446747,0.029586301553034506,0.03096240860201286,0.029754790370564697,0.0003065725946977599,0.029586287546380288,0.03096239394388635,2.0472878692692877e-05,2.1093825443180972e-07,2.035693978551389e-05,2.1303774194142445e-05,2.0472878692692877e-05,2.1093825443180972e-07,2.035693978551389e-05,2.1303774194142445e-05,0.3506802721088434,23.984334758815894,-52.37,32.75,0.3385094383890882,0.000947410274764574,0.3361352567838655,0.3398124222874759,0.005805760771650623,0.0010539363845702922,0.004064118745508843,0.007458507235805741,0.003198756520004833,0.010200605316060868,9.073873731557658e-08,0.04292646678996799,-0.29633443167143964,0.0018284319750182785,-0.29926666358645715,-0.29325499948023315,-0.11252694331091036,0.4649185744922487,-1.20697021484375,0.71258544921875,33.723333333333336,0.009428090415818756,33.71,33.73,0.13605442176870747,0.0008255933952526737,0,1,0
0,0.02953981145002851,0.00023540707918704972,0.028898248028545334,0.030274355077523685,0.02953979746538343,0.00023540696774136777,0.02889823434762726,0.03027434074513332,2.032495213657372e-05,1.6197251716319933e-07,1.9883522581199616e-05,2.083035698982817e-05,2.032495213657372e-05,1.6197251716319933e-07,1.9883522581199616e-05,2.083035698982817e-05,-0.27118644067796627,25.100283358839867,-49.97,30.32,0.3360476558987176,0.001370013198139745,0.3324225846129072,0.3377417796075159,0.002079228203886246,0.0010150465641903714,0.0007742232038159079,0.004211168066808805,0.0019227909947304082,0.00792572533848209,7.618549086388371e-08,0.03460139336550766,-0.30249356008645456,0.0017945517604408745,-0.3055013748505659,-0.29960020620328864,0.04548851910341685,0.32256585389675596,-0.946044921875,0.98419189453125,33.72777777777779,0.014740554623801225,33.71,33.75,0.13559322033898305,0.0006604747162024323,0,1,0
0,0.03052242879723744,0.000864182862602771,0.028898248028545334,0.033026569175480386,0.030522414347404835,0.0008641824534840261,0.02889823434762726,0.03302655354014544,2.1001044825397264e-05,5.946035014259253e-07,1.9883522581199616e-05,2.2724025807085277e-05,2.1001044825397264e-05,5.946035014259253e-07,1.9883522581199616e-05,2.2724025807085277e-05,-0.017525423728813806,26.350952749865126,-59.74,33.86,0.3350580927946987,0.0012329982831423695,0.33320849344510617,0.33782353625540346,0.003928740701204792,0.0013682192359927023,0.001969771610918493,0.00606649265004404,0.002887164325957083,0.012155267447685674,1.0678433573496626e-07,0.05445653857582873,-0.3096906349786089,0.0024369005317420025,-0.3139021904267203,-0.3058803651701257,0.5844239265688004,0.8358280588788405,-0.83465576171875,4.35638427734375,33.711052631578944,0.0044659375653878335,33.71,33.73,0.13559322033898305,0.0003157894736841477,0,1,0
0,0.03446820513155289,0.0008767170250588587,0.03096240860201286,0.03577878327343708,0.034468188813723176,0.0008767166100062317,0.03096239394388635,0.03577876633515756,2.3715947568505668e-05,6.032276679147011e-07,2.1303774194142445e-05,2.461769462434238e-05,2.3715947568505668e-05,6.032276679147011e-07,2.1303774194142445e-05,2.461769462434238e-05,1.2018367346938787,26.615124185355885,-61.86,42.85,0.3328240258714941,0.0010143267529418149,0.3314105882909776,0.3347809696754911,0.0027734521824571783,0.0011034032689737122,0.0012259913638768593,0.004506703478077806,0.002284971943187412,0.0076258043829105235,1.8106628849046125e-07,0.03271133853808485,-0.31953878117008333,0.0032901749306761046,-0.32521764388469926,-0.31443067931790625,-0.17682352373676916,2.030532875618008,-2.13775634765625,5.40313720703125,33.72666666666667,0.01527525231651884,33.71,33.75,0.16326530612244897,-0.0022497420020637705,0,1,0
0,0.034514252471673175,0.00037562161991544913,0.03371462269996956,0.035090729748947905,0.03451423613204386,0.00037562144208984013,0.03371460673889847,0.03509071313640453,2.3747630573170185e-05,2.584475347501405e-07,2.3197443011399553e-05,2.4144277420028106e-05,2.3747630573170185e-05,2.584475347501405e-07,2.3197443011399553e-05,2.4144277420028106e-05,-1.683050847457626,20.70891957622037,-49.09,31.69,0.32954206339040515,0.0020800057431109276,0.32496785882701756,0.33196687817109966,0.0032818197771201196,0.0018446958212225326,0.0011490567274244291,0.007673690739639102,0.0041250712965957845,0.014347808411978724,5.0281471743185424e-08,0.06330570142414862,-0.33355902759737893,0.004782299609022137,-0.3415940059121414,-0.3259727584124419,-0.38604972971875967,0.6072842401028606,-2.02484130859375,0.37384033203125,33.72684210526316,0.014886458551295105,33.71,33.75,0.13559322033898305,0.00028070175438598387,0,1,0
0,0.03418268632207105,0.0019576365808178396,0.028898248028545334,0.03853099737139378,0.03418267013941071,0.0019576356540396606,0.02889823434762726,0.03853097913016968,2.351949553134125e-05,1.3469574737549683e-06,1.9883522581199616e-05,2.651136344159949e-05,2.351949553134125e-05,1.3469574737549683e-06,1.9883522581199616e-05,2.651136344159949e-05,3.065254237288135,23.29864300667128,-49.16,51.05,0.3271255804709619,0.0015079661737549632,0.3241763652511632,0.3295647859054693,0.007651918669145528,0.0015145702926236272,0.005001111466616548,0.010069033735948025,0.010035037791170813,0.029487789044461917,1.6234439159656944e-07,0.11431079467669993,-0.34990663865063015,0.004370493781947823,-0.35674412217122276,-0.3425096838441929,-0.8244442562490304,0.960479604723704,-3.54461669921875,0.201416015625,33.72333333333333,0.01632993161855385,33.71,33.75,0.10847457627118644,0.0028070175438595015,0,1,0
0,0.03552308770690397,0.008344230132820513,0.004128321146935048,0.0516040143366881,0.035523070889675,0.008344226182521217,0.00412831919251818,0.05160398990647725,2.4441762555171536e-05,5.741271516002509e-06,2.8405032258856597e-06,3.550629032357074e-05,2.4441762555171536e-05,5.741271516002509e-06,2.8405032258856597e-06,3.550629032357074e-05,-4.545457627118648,56.00018333242451,-137.36,113.42,0.3262066434053233,0.0018018734034478006,0.32241365939367544,0.32946039066681765,0.015600414525938116,0.003746277640737116,0.00870358908961632,0.02091290595470322,0.01946167001939501,0.05084562350476633,1.2236724272751687e-07,0.20541477415240345,-0.3621432536587511,0.0024929680204578896,-0.3656549527748081,-0.35743765709271846,3.731775402135352,5.8694169723124086,-4.26177978515625,16.0919189453125,33.71105263157895,0.01832304756371385,33.68,33.73,0.16271186440677965,0.0013684210526312818,0,1,0
0,0.03990242378415106,0.0034626586262050947,0.03371462269996956,0.04816374671424223,0.03990240489367063,0.0034626569869240934,0.03371460673889847,0.0481637239127121,2.7454977325028637e-05,2.3824922160376517e-06,2.3197443011399553e-05,3.313920430199936e-05,2.7454977325028637e-05,2.3824922160376517e-06,2.3197443011399553e-05,3.313920430199936e-05,0.6634013605442198,63.886975741407014,-233.71,183.33,0.3260172856057778,0.003230506556295702,0.32223103602641756,0.3346240842135188,0.02083211319244587,0.006017940471861895,0.01111473950053797,0.029280941704050597,0.01506613821270473,0.0534701904977562,4.151151289377708e-08,0.23426786858410228,-0.3682643511228776,0.0014844981712432014,-0.3709072282772171,-0.3659344331917291,-2.939396519814768,1.4287426715278913,-5.36041259765625,-0.26702880859375,33.72999999999999,0.013333333333333048,33.71,33.75,0.19047619047619047,0.000660474716202491,0,1,0
0,0.03882587745331767,0.007650903309332269,0.011008856391826794,0.05298012138566645,0.038825859072492426,0.007650899687265584,0.01100885118004848,0.05298009630398331,2.6714256529162762e-05,5.2642260031616485e-06,7.574675269028425e-06,3.64531247321993e-05,2.6714256529162762e-05,5.2642260031616485e-06,7.574675269028425e-06,3.64531247321993e-05,-2.0750847457627106,111.95332256101399,-328.77,231.43,0.3262732114095568,0.0030690809570842956,0.32003771191733865,0.33029365531343935,0.03013913001242291,0.008329134646075745,0.014783802012292298,0.04170198261136792,0.013322630626615838,0.041641651469070874,9.353097829567503e-08,0.17307897819424056,-0.3763334624892379,0.0035525305414322484,-0.38290357601037084,-0.3713109719151111,0.1830718549112337,1.780551908735373,-3.09906005859375,2.6214599609375,33.726666666666674,0.007453559924997816,33.71,33.73,0.13559322033898305,-0.000928792569659258,0,1,0
0,0.03860538153620346,0.0062787323889001365,0.017201338112229368,0.0488518002387314,0.03860536325976458,0.0062787294164423114,0.01720132996882575,0.04885177711146513,2.656254367990374e-05,4.320099859087875e-06,1.1835430107856916e-05,3.3612621506313634e-05,2.656254367990374e-05,4.320099859087875e-06,1.1835430107856916e-05,3.3612621506313634e-05,5.617898305084745,74.5854571115042,-248.55,205.79,0.321702511776221,0.003157243379288855,0.3184646850388143,0.33030613749743665,0.02656564101285456,0.011055517756299553,0.009088775470964889,0.040244233441978236,0.024730560503070088,0.06713751912795042,6.112351147447015e-08,0.280493079209502,-0.39420526901328645,0.00660644723619263,-0.4054935701926555,-0.38388824266894894,0.7609114161791931,1.9164005017908559,-2.45208740234375,4.473876953125,33.73315789473685,0.0097617036794698,33.71,33.75,0.16271186440677965,-3.508771929836329e-05,0,1,0
0,0.03874162600133953,0.0006091664176004865,0.037842943846904606,0.04059515794486131,0.03874160766040015,0.0006091661292108279,0.03784292593141665,0.04059513872642877,2.6656287075573274e-05,4.191387037755113e-07,2.6037946237285214e-05,2.7931615054542318e-05,2.6656287075573274e-05,4.191387037755113e-07,2.6037946237285214e-05,2.7931615054542318e-05,-2.145661016949155,41.03423320099406,-88.99,59.92,0.3140299253114629,0.0029290872537021226,0.3085096909821271,0.3175333165953533,0.015853479720723374,0.005449220397394529,0.00666890220193474,0.0239877974478941,0.005011347357416199,0.014640510500680912,8.926793448882364e-08,0.05614918094729143,-0.41848458526781096,0.007113088300018236,-0.43007237002433274,-0.40684008433879437,-0.10662072939492515,1.3125447471109315,-1.79595947265625,2.764892578125,33.73444444444444,0.015713484026367724,33.71,33.75,0.13559322033898305,-0.0014860681114551647,0,1,0
0,0.03809569820283948,0.00033169829813689864,0.037842943846904606,0.03853099737139378,0.03809568016769325,0.00033169814110532833,0.03784292593141665,0.03853097913016968,2.6211854598053714e-05,2.2822596700795476e-07,2.6037946237285214e-05,2.651136344159949e-05,2.6211854598053714e-05,2.2822596700795476e-07,2.6037946237285214e-05,2.651136344159949e-05,-0.11098639455782261,29.433171150812342,-58.01,42.73,0.3076412996122808,0.000902606244816121,0.3062886621124792,0.3097835629376322,0.010402377686721566,0.004142108054792049,0.0036135408017712663,0.01491003138630985,0.011839040369992207,0.03269613095107484,2.234840847936681e-07,0.13706568920738665,-0.44229418305433515,0.006321177987241663,-0.4520519063200369,-0.4313958722267279,-0.19194799615431202,1.3790174277504568,-2.07061767578125,2.69317626953125,33.73947368421053,0.015034586165353518,33.71,33.75,0.13605442176870747,-0.0006315789473682206,0,1,0
0,0.03811723545464023,0.0004714334849567228,0.036466836797926255,0.039219050895882956,0.03811721740929788,0.0004714332617721583,0.03646681953391059,0.03921903232892271,2.622667336603212e-05,3.243711637609079e-07,2.5091111828656657e-05,2.6984780645913764e-05,2.622667336603212e-05,3.243711637609079e-07,2.5091111828656657e-05,2.6984780645913764e-05,0.23396610169491597,29.00058221856589,-59.1,58.82,0.30430039351140326,0.0026570749000731993,0.29767181105779067,0.3072311087058184,0.011723468587650766,0.003512550002119057,0.0059418347061834945,0.01657479953658386,0.008122661273115764,0.03348680976373235,4.096637210015963e-08,0.14619231466085347,-0.4585154606564568,0.002864473083841682,-0.4621017145336392,-0.45295048374446734,0.04547810354774279,1.4203404160844326,-2.08282470703125,2.7374267578125,33.74333333333334,0.017638342073765946,33.71,33.77,0.16271186440677965,0.001031991744066084,0,1,0
0,0.03795527911620904,0.00040954898266103596,0.03715489032241543,0.039219050895882956,0.03795526114753958,0.0004095487887736407,0.037154872732663616,0.03921903232892271,2.61152388420712e-05,2.8179135416113253e-07,2.5564529032970932e-05,2.6984780645913764e-05,2.61152388420712e-05,2.8179135416113253e-07,2.5564529032970932e-05,2.6984780645913764e-05,1.390440677966103,37.758180563512575,-84.5,96.65,0.3048802723267971,0.0007146731216576193,0.3035201767354344,0.3059435342622108,0.01573006304198438,0.0018489556138386433,0.01384498227627949,0.01927669404662628,0.013159225550105609,0.021028105332714386,4.2871882188766364e-07,0.06781153238937665,-0.4610118958596295,0.0013209842688369062,-0.4623212087947599,-0.45821371575494824,0.6652491158518848,1.622691397213114,-2.00347900390625,3.0364990234375,33.74555555555556,0.008314794192832278,33.73,33.75,0.13559322033898305,0.0,0,1,0
0,0.038191619619449814,0.0012116983383787783,0.034402676224458736,0.04472347909179635,0.03819160153889287,0.0012116977647403451,0.0344026599376515,0.04472345791894695,2.6277853604336354e-05,8.337125229514907e-07,2.367086021571383e-05,3.0772118280427976e-05,2.6277853604336354e-05,8.337125229514907e-07,2.367086021571383e-05,3.0772118280427976e-05,-2.4578305084745704,39.259701165855695,-88.3,96.24,0.30482613752995147,0.0009263888261822986,0.3026124880137268,0.3061146148749945,0.007653886901535148,0.003749731676916746,0.0026241288100539903,0.014420653395356737,0.014161033474423558,0.046873070105382775,7.402661024447088e-08,0.20293627477098927,-0.45215838094431576,0.003551830416685373,-0.4577025927862531,-0.4461518763574838,-0.4298345030981021,1.4992551554592506,-2.24761962890625,2.72979736328125,33.762631578947364,0.00964752777885591,33.75,33.77,0.13559322033898305,0.0006315789473685197,0,1,0
0,0.03902714481082147,0.0004997990282628506,0.037842943846904606,0.03990710442037213,0.039027126334712656,0.0004997987916495589,0.03784292593141665,0.03990708552767574,2.685273911273766e-05,3.438881573273778e-07,2.6037946237285214e-05,2.745819785022804e-05,2.685273911273766e-05,3.438881573273778e-07,2.6037946237285214e-05,2.745819785022804e-05,1.7207142857142843,40.35624692431553,-96.14,126.17,0.31036462598987363,0.0016798258438522177,0.3076770318540808,0.31384067845924646,0.020261567292822007,0.003335639426866226,0.014926963055970008,0.025895300041735028,0.007695909302532315,0.029023422946777674,7.071910479439225e-08,0.12685712742819316,-0.4399368747193227,0.0033041205444844885,-0.44546852667990633,-0.4346466747536707,0.10014432239769114,1.6894336887385877,-2.43377685546875,3.23333740234375,33.75444444444444,0.008314794192832278,33.75,33.77,0.16326530612244897,-0.0001651186790505934,0,1,0
0,0.03852631673517282,0.0005759275138963427,0.037842943846904606,0.04197126499383966,0.03852629849616452,0.000575927241242542,0.03784292593141665,0.04197124512393483,2.650814291640009e-05,3.962685805859382e-07,2.6037946237285214e-05,2.8878449463170872e-05,2.650814291640009e-05,3.962685805859382e-07,2.6037946237285214e-05,2.8878449463170872e-05,-0.6110847457627151,36.17238745806734,-81.49,53.64,0.31053709432485094,0.0010877675753366235,0.3077940848067417,0.3115684042725086,0.010648235580511329,0.0049427287561531925,0.0035250523855793582,0.017395458424701787,0.0024245109198086285,0.007514996611692354,7.783700625707546e-08,0.030920439713687853,-0.429125181850975,0.00291050228528704,-0.4340591957211396,-0.4245013747351899,0.2722723608277276,1.5285979953131632,-2.23236083984375,2.78167724609375,33.75736842105263,0.00964752777885591,33.75,33.77,0.16271186440677965,-0.00021052631578950657,0,1,0
0,0.04069278716117398,0.0012494253023593496,0.03577878327343708,0.044035425567307176,0.04069276789652222,0.0012494247108603392,0.03577876633515756,0.04403540472019392,2.799878911731658e-05,8.596706689085369e-07,2.461769462434238e-05,3.02987010761137e-05,2.799878911731658e-05,8.596706689085369e-07,2.461769462434238e-05,3.02987010761137e-05,-2.4797288135593214,63.55361782173804,-133.81,152.47,0.3107479785170989,0.0008865279661517401,0.30876311343639373,0.31189767934959384,0.0022782821072417974,0.0005314859792183529,0.0012074728827305068,0.003115510734453621,0.0010128550322210327,0.0029595639985969375,1.3192414891755044e-07,0.011509664891254219,-0.4203628613586543,0.0021531395663290406,-0.42402946292487853,-0.41697227668357,-0.10350884542012488,1.3756625664714874,-2.07977294921875,2.60772705078125,33.75222222222222,0.006285393610548073,33.75,33.77,0.13559322033898305,0.0,0,1,0
0,0.04027219404561135,0.0005342080473714842,0.037842943846904606,0.043347372042818,0.040272174980075334,0.0005342077944683833,0.03784292593141665,0.04334735152144089,2.7709398815782575e-05,3.675633817827724e-07,2.6037946237285214e-05,2.9825283871799426e-05,2.7709398815782575e-05,3.675633817827724e-07,2.6037946237285214e-05,2.9825283871799426e-05,3.3706779661016943,33.8054216023089,-79.31,62.51,0.3131337917419736,0.0017999441095833903,0.30880243776289884,0.3149849843048367,0.006844272170335546,0.004717950939708606,0.0006293040396064579,0.012638226023195746,0.008837903492751048,0.030109511763037243,1.785550337012748e-07,0.13272392495913382,-0.41363153490117727,0.0017431275323817308,-0.416609336559026,-0.41087640439532036,0.05729713155968905,1.3813316749401947,-1.97296142578125,2.716064453125,33.769999999999996,7.105427357601002e-15,33.77,33.77,0.16271186440677965,0.0,0,1,0
0,0.039916465692814235,0.0004539010624534877,0.03853099737139378,0.041283211469350475,0.039916446795686,0.0004539008475690676,0.03853097913016968,0.041283191925181796,2.7464638900626882e-05,3.1230793008660915e-07,2.651136344159949e-05,2.8405032258856593e-05,2.7464638900626882e-05,3.1230793008660915e-07,2.651136344159949e-05,2.8405032258856593e-05,-1.9059183673469398,33.861315309608656,-84.77,43.75,0.3139243443892934,0.0007238030706653298,0.31271912201829494,0.3151857122979874,0.004764300872059718,0.002391843905513994,0.001563452019630656,0.008744002352065516,1.7611898452427362e-07,1.3838009790360358e-07,8.165993838071817e-08,5.741552721871823e-07,-0.40839129045927264,0.0013011991118338964,-0.41059642019014575,-0.4063419278601754,0.5111012801934709,1.6024666657463635,-2.00958251953125,3.057861328125,33.774444444444434,0.008314794192829324,33.77,33.79,0.13605442176870747,-0.0011558307533537434,0,1,0
0,0.03959097171993126,0.0005952185823187804,0.037842943846904606,0.041283211469350475,0.03959095297689734,0.0005952183005322613,0.03784292593141665,0.041283191925181796,2.7240681837434986e-05,4.095418556375653e-07,2.6037946237285214e-05,2.8405032258856593e-05,2.7240681837434986e-05,4.095418556375653e-07,2.6037946237285214e-05,2.8405032258856593e-05,1.672203389830511,38.6514085373966,-100.16,86.81,0.3136423375654471,0.001321952575794468,0.3111335049623438,0.3164795458729931,0.0011305717877709148,0.0005727699198379963,0.0005775150081025911,0.0026770174505294873,0.0017028264351006829,0.0055872623658384975,9.041083785452098e-08,0.02382890869783051,-0.40459138555109675,0.000857126153562558,-0.4061264307047205,-0.4033398822912815,-0.5026959056185522,1.5205295461885064,-2.6214599609375,2.73284912109375,33.76555555555555,0.00831479419283228,33.75,33.77,0.16271186440677965,-0.0004953560371517803,0,1,0
0,0.039073951173031585,0.0005397567142281419,0.03715489032241543,0.04059515794486131,0.0390739326747639,0.0005397564586982076,0.037154872732663616,0.04059513872642877,2.6884944364731843e-05,3.7138115795490847e-07,2.5564529032970932e-05,2.7931615054542318e-05,2.6884944364731843e-05,3.7138115795490847e-07,2.5564529032970932e-05,2.7931615054542318e-05,-0.9160000000000001,33.6811984508382,-78.14,60.55,0.3143277218478797,0.000709112924691391,0.3132651223612862,0.3156887005615667,0.0014697037646406806,0.0007759201202095776,0.0004467615665900156,0.002761167942383404,9.201238939691115e-07,1.379838059380896e-06,9.629018443702009e-08,5.503422445988365e-06,-0.4028303134712958,0.00016793920917943946,-0.4032369679466033,-0.4026576578833581,0.481923105698957,1.4029284707839806,-1.91802978515625,2.581787109375,33.77842105263158,0.009874559494363151,33.77,33.79,0.10847457627118644,-0.0004210526315788636,0,1,0
0,0.03916288326123088,0.0003722209555644333,0.037842943846904606,0.03990710442037213,0.03916286472086126,0.00037222077934875365,0.03784292593141665,0.03990708552767574,2.694613434352071e-05,2.5610769787325533e-07,2.6037946237285214e-05,2.745819785022804e-05,2.694613434352071e-05,2.5610769787325533e-07,2.6037946237285214e-05,2.745819785022804e-05,1.5893197278911557,37.68702249904274,-94.25,86.8,0.31456430224183596,0.0005228708822354719,0.3136814848979532,0.315443633434836,0.0038393687524914477,0.001548434463665042,0.0007969135457751575,0.006160691015793579,0.004754004416920763,0.013609821325789567,9.799873244842328e-08,0.05036485542900044,-0.4050251321646868,0.0015663727272083186,-0.4081411088584217,-0.40304329417309764,-0.22463976005762445,1.399941867185378,-2.349853515625,2.64739990234375,33.78333333333333,0.009428090415818756,33.77,33.79,0.16326530612244897,0.00033023735810106946,0,1,0
0,0.03949334250361862,0.0003553681092289498,0.03853099737139378,0.03990710442037213,0.039493323806804,0.00035536794099169167,0.03853097913016968,0.03990708552767574,2.7173507774660642e-05,2.445120485336112e-07,2.651136344159949e-05,2.745819785022804e-05,2.7173507774660642e-05,2.445120485336112e-07,2.651136344159949e-05,2.745819785022804e-05,-0.4573559322033901,32.42997620102018,-93.06,49.44,0.31147868445673427,0.0017694364755986007,0.3089766680603576,0.31455855520854675,0.0021615096974926216,0.001319116591263723,0.0005922950650877609,0.004899250584928434,4.838136660761719e-07,1.1561529658588681e-06,9.348900439909436e-08,5.3180364316673945e-06,-0.41587183652035165,0.005014663368152559,-0.42510920998992574,-0.40869145033594356,0.2765508798452524,1.492682610393993,-2.04620361328125,2.72979736328125,33.76578947368421,0.01532654713532744,33.75,33.79,0.13559322033898305,-0.001614035087719326,0,1,0
0,0.040178581321191,0.002696127723125424,0.03371462269996956,0.05435622843464479,0.04017856229997283,0.0026961264467330825,0.03371460673889847,0.054356202701489366,2.7644988311794225e-05,1.855078425917337e-06,2.3197443011399553e-05,3.739995914082785e-05,2.7644988311794225e-05,1.855078425917337e-06,2.3197443011399553e-05,3.739995914082785e-05,1.1472881355932198,35.95793536005168,-80.55,70.54,0.30914007506317914,0.0015289905286664208,0.3061954887306135,0.31172440107752,0.011881833473288663,0.009023842705546707,0.0003173200853928152,0.022730438410353104,0.013735609295062639,0.04419798011211322,5.195139490821177e-08,0.18684680862243985,-0.43834830835264293,0.0074526738846189666,-0.45063646920828254,-0.42639481194111895,0.14192520222085403,1.4701762305396777,-1.96990966796875,2.69622802734375,33.774444444444434,0.008314794192829326,33.77,33.79,0.16271186440677965,-0.0004953560371516042,0,1,0
0,0.04146452287107393,0.00038659532744185715,0.04059515794486131,0.043347372042818,0.04146450324106935,0.00038659514442110745,0.04059513872642877,0.04334735152144089,2.8529784089723234e-05,2.6599802574133246e-07,2.7931615054542318e-05,2.9825283871799426e-05,2.8529784089723234e-05,2.6599802574133246e-07,2.7931615054542318e-05,2.9825283871799426e-05,-0.6907118644067799,30.83905599637391,-91.97,43.92,0.3026351025141304,0.001353226588094469,0.29929654566390596,0.305741518261666,0.009502877697133464,0.00356178982964326,0.004205748780014002,0.014483231214264692,0.007160639778787941,0.02391126491684804,5.991845922204142e-08,0.10396092770473547,-0.4631241852338594,0.0061949346697408,-0.47212610924464904,-0.45205495262993345,0.153674558729451,1.4000884561037679,-1.93023681640625,3.20892333984375,33.775263157894734,0.015683857290263857,33.75,33.79,0.16271186440677965,0.0017894736842102449,0,1,0
0,0.041306614650455514,0.0001247194145182217,0.041283211469350475,0.04197126499383966,0.04130659509520733,0.00012471935547394666,0.041283191925181796,0.04197124512393483,2.8421134884853698e-05,8.58135514802652e-08,2.8405032258856593e-05,2.8878449463170872e-05,2.8421134884853698e-05,8.58135514802652e-08,2.8405032258856593e-05,2.8878449463170872e-05,-1.7573129251700703,24.460579112824185,-55.83,30.48,0.3010442164823465,0.0008936163275165956,0.2996020928753286,0.3026677764145399,0.013383034319038173,0.0027630787048273362,0.010330608077530274,0.01803439794138365,0.011758416734648482,0.022601333083736127,7.997753570521127e-07,0.08382479361349116,-0.47589778104769564,0.0014085673910936495,-0.47727535654779285,-0.4727860507767786,-0.08295499361478366,1.632254993028695,-2.5543212890625,2.94647216796875,33.78222222222223,0.009749960430433753,33.77,33.79,0.16326530612244897,-0.00026831785345711895,0,1,0
0,0.03741700595079226,0.005946184165773102,0.01788939163671854,0.06330092425300407,0.0374169882369505,0.005946181350749213,0.01788938316757878,0.06330089428527876,2.5744878444138278e-05,4.0912890987486104e-06,1.230884731217119e-05,4.355438279691344e-05,2.5744878444138278e-05,4.0912890987486104e-06,1.230884731217119e-05,4.355438279691344e-05,3.532677966101703,116.78618391098117,-377.95,337.06,0.3112220653694962,0.009526898630435555,0.2990453444936738,0.32433890643737495,0.060718654494609905,0.04226033338746365,0.011158095170796023,0.10648583566506949,0.0756161748760854,0.18786383861084313,6.842565047904259e-08,0.7433346892409293,-0.4761774053915972,0.0007783878100950466,-0.47723468446435535,-0.47481976873280834,-0.586088052122925,1.129876860299595,-2.29949951171875,1.91497802734375,33.784444444444446,0.016063146994222604,33.77,33.81,0.08135593220338982,2.063983488119952e-05,0,1,0
0,0.03252912507331588,0.013504333056658463,0.008256642293870096,0.04953985376322058,0.0325291096734794,0.01350432666347938,0.00825663838503636,0.04953983031021816,2.238175796342566e-05,9.291695157812837e-06,5.681006451771319e-06,3.408603871062791e-05,2.238175796342566e-05,9.291695157812837e-06,5.681006451771319e-06,3.408603871062791e-05,-4.347050847457629,147.04538041066124,-287.42,327.81,0.3075040478112471,0.0058767013467211,0.3011820111153456,0.324421455366496,0.04059985913622175,0.021994222698554562,0.014014971648857474,0.0870719647195346,0.00242900143089615,0.010303802190391866,4.063527270226075e-08,0.04614433173286103,-0.4739254848707964,0.00032819123624288764,-0.4746684638306382,-0.47361893895081364,1.2430380355039838,1.1059361328002244,-1.52587890625,3.28521728515625,33.78578947368421,0.008153649149908728,33.77,33.79,0.05423728813559322,-0.001052631578947159,0,1,0
0,0.04246273179704607,0.0003108308984988881,0.04197126499383966,0.042659318518328826,0.04246271169447271,0.00031083075134629963,0.04197124512393483,0.04265929832268786,2.9216604609109675e-05,2.1386809273463041e-07,2.8878449463170872e-05,2.935186666748515e-05,2.9216604609109675e-05,2.1386809273463041e-07,2.8878449463170872e-05,2.935186666748515e-05,0.08508474576271226,32.85380746569289,-73.74,48.46,0.29953353365833923,0.000600403956760065,0.2986817387686838,0.3006798995396795,0.0058677532174014856,0.0028258855214286062,0.003072316327861861,0.012456137794627035,0.0018811972743253873,0.005384882576328322,9.297568959176772e-08,0.019532241699460877,-0.47391799657784733,0.00019696038159159595,-0.47425656230514457,-0.473640956063368,-0.22595979913657693,1.0753493499796587,-1.84783935546875,2.0050048828125,33.77666666666667,0.009428090415818758,33.77,33.79,0.13559322033898305,0.0008255933952526737,0,1,0
0,0.04287930842071643,0.0007266904426015924,0.039219050895882956,0.04541153261628553,0.04287928812092871,0.0007266900985740776,0.03921903232892271,0.045411511117699976,2.9503231351857778e-05,5.000014468260492e-07,2.6984780645913764e-05,3.124553548474225e-05,2.9503231351857778e-05,5.000014468260492e-07,2.6984780645913764e-05,3.124553548474225e-05,0.518197278911562,42.447486065499916,-95.98,114.07,0.3000176162837168,0.0011913788822578942,0.2981641909202878,0.302342903773568,0.006930340987177451,0.0035921140223000546,0.0024065679657297033,0.011965591414298128,0.006178617883425967,0.023362458814866028,1.6541454894714036e-07,0.10455431999459058,-0.4744217599023688,5.4001901927287095e-05,-0.474479891522265,-0.4742936127756049,-0.29194723912911824,1.004266783563741,-1.74407958984375,1.763916015625,33.77736842105262,0.009647527778852482,33.77,33.79,0.13605442176870747,-0.0004912280701753408,0,1,0
0,0.0428127358582486,0.00039848825755186494,0.041283211469350475,0.044035425567307176,0.04281271558997742,0.0003984880689008034,0.041283191925181796,0.04403540472019392,2.9457425908987683e-05,2.7418099047211475e-07,2.8405032258856593e-05,3.02987010761137e-05,2.9457425908987683e-05,2.7418099047211475e-07,2.8405032258856593e-05,3.02987010761137e-05,-0.1318305084745742,34.28820426769936,-82.05,65.2,0.2997538919361915,0.0008805506258965207,0.29800905007049183,0.30088523054167005,0.005016382945833498,0.001789160294949465,0.0023043745885679093,0.007511516293117869,0.003741776866388152,0.011563598402853278,1.1705771355008388e-07,0.04766062390404942,-0.47389626182002953,0.0003080505865136903,-0.4743287870941405,-0.47332922203246836,0.060143205936821285,1.039021003304833,-1.42974853515625,2.17132568359375,33.79777777777778,0.009749960430437216,33.79,33.81,0.13559322033898305,0.0002683178534572143,0,1,0
0,0.042771653787633146,0.0022140250438552954,0.032338515650991204,0.05091596081219893,0.04277163353881085,0.0022140239956984927,0.03233850034139241,0.05091593670772422,2.942915927227114e-05,1.5233662923563125e-06,2.2250608602771e-05,3.5032873119256466e-05,2.942915927227114e-05,1.5233662923563125e-06,2.2250608602771e-05,3.5032873119256466e-05,-3.962440677966104,36.8629321990842,-85.92,44.5,0.2999725513200081,0.0015668365703587824,0.2976888666748533,0.3053496708556904,0.006097861003349355,0.0063908903885934835,0.001590280457230934,0.02706099951622957,0.019308290097794542,0.057652855829810924,9.77692070636138e-08,0.22920684714489198,-0.4724031638757795,0.0005445642950070141,-0.4732450097869879,-0.47146687712020857,-0.09807097848956717,1.3223135502391463,-2.42156982421875,2.15911865234375,33.79555555555556,0.008958064164777567,33.79,33.81,0.13559322033898305,-0.0013415892672860716,0,1,0
0,0.031069335838926706,0.0027026188790241173,0.022705766308142764,0.03577878327343708,0.031069321130179052,0.0027026175995587464,0.022705755558849988,0.03577876633515756,2.13773457867048e-05,1.8595446843826338e-06,1.5622767742371126e-05,2.461769462434238e-05,2.13773457867048e-05,1.8595446843826338e-06,1.5622767742371126e-05,2.461769462434238e-05,3.398135593220332,66.35639928714106,-143.51,190.65,0.3037522850281312,0.0032003797905630453,0.30094365425530156,0.3127248222868678,0.01987110099521505,0.008138072930479313,0.010613247313774568,0.0325165089589667,0.0030223906833856543,0.012821102697042957,3.7936713659370014e-08,0.057417722576456665,-0.4701871448883857,0.0007184440625642738,-0.4713454871112895,-0.4689906802190862,0.07891453821073395,2.887269211408136,-5.12237548828125,5.26275634765625,33.7815789473684,0.009874559494363151,33.77,33.79,0.16271186440677965,-0.0004210526315788636,0,1,0
0,0.032385322013201316,0.0004296507917861514,0.031650462126502035,0.03371462269996956,0.03238530668144369,0.0004296505883822195,0.03165044714263938,0.03371460673889847,2.228281385476519e-05,2.9562246168250747e-07,2.177719139845672e-05,2.3197443011399553e-05,2.228281385476519e-05,2.9562246168250747e-07,2.177719139845672e-05,2.3197443011399553e-05,-0.29921768707482854,27.961708907615872,-71.93,48.3,0.3024260214354175,0.0010014126864336028,0.3001679677974508,0.3047026331634624,0.011169019631512659,0.0014369350942932296,0.009017092934430204,0.013625995863997016,0.007635374535802732,0.02133121375455842,3.137916030071519e-07,0.09080068030021876,-0.46771873694215915,0.0006858903467569525,-0.4688550877301373,-0.4666158803685962,0.9438095850033441,1.8325455341343102,-2.00958251953125,4.36553955078125,33.778888888888886,0.009938079899997086,33.77,33.79,0.13605442176870747,-0.00033023735810106946,0,1,0
0,0.032408725194306404,0.0002504031015195465,0.031650462126502035,0.033026569175480386,0.032408709851469306,0.0002504029829744944,0.03165044714263938,0.03302655354014544,2.2298916480762292e-05,1.7229057341290075e-07,2.177719139845672e-05,2.2724025807085277e-05,2.2298916480762292e-05,1.7229057341290075e-07,2.177719139845672e-05,2.2724025807085277e-05,0.39945762711864297,33.96746684363772,-76.39,43.27,0.3017328229829296,0.0009698682732335638,0.3001179153809407,0.3033789252226156,0.006020641057327802,0.0016830099920481937,0.0028248420655311184,0.008691115025731508,0.0022241680680774954,0.00943507722380737,7.279353053668558e-08,0.04225381055346153,-0.46560439475218385,0.00048452239777554577,-0.4664951067529839,-0.46493084229606774,-0.13706879343643377,1.4798138568079517,-2.58941650390625,2.57415771484375,33.77526315789473,0.008806947647725358,33.77,33.79,0.13559322033898305,-0.00045614035087710223,0,1,0
0,0.03188756165183275,0.00035512474805729353,0.031650462126502035,0.033026569175480386,0.03188754655572319,0.00035512457993524936,0.03165044714263938,0.03302655354014544,2.1940328408051526e-05,2.4434460318027566e-07,2.177719139845672e-05,2.2724025807085277e-05,2.1940328408051526e-05,2.4434460318027566e-07,2.177719139845672e-05,2.2724025807085277e-05,0.272101694915257,35.47221666184554,-76.95,49.2,0.3008417374801106,0.0008391529228811592,0.2992403707918536,0.3021856457889313,0.0019642952854919057,0.00038469798731701306,0.001358914039033189,0.0025058207292656923,0.00106849248544629,0.004403666285658216,1.346141325631045e-07,0.019225273653588636,-0.46493767120411306,0.00016693423099866793,-0.465349161177001,-0.46479081744703,-0.2536774865226497,1.547852604474672,-2.56805419921875,2.82745361328125,33.78222222222222,0.009749960430433753,33.77,33.79,0.13559322033898305,-0.001589267285861397,0,1,0
0,0.031627058945396976,0.0003536281844173031,0.03096240860201286,0.032338515650991204,0.03162704397261375,0.00035362801700375613,0.03096239394388635,0.03233850034139241,2.1761088772459605e-05,2.433148882681258e-07,2.1303774194142445e-05,2.2250608602771e-05,2.1761088772459605e-05,2.433148882681258e-07,2.1303774194142445e-05,2.2250608602771e-05,-1.842779661016948,29.17387036842188,-65.77,39.69,0.30040885835535447,0.000807660535389992,0.2985794489813214,0.30151305931803946,0.0013338206926032012,0.00044487494918777455,0.000626679831637733,0.0019951452478126405,0.0009566368963022531,0.00405638595029333,1.06726927174422e-07,0.01816642472490246,-0.4668669560584962,0.0009880038905550816,-0.4686735263677005,-0.4654520937857328,-0.13217026779136942,1.3527504532195174,-2.03704833984375,2.69317626953125,33.778421052631586,0.009874559494363151,33.77,33.79,0.13559322033898305,-0.00014035087719295453,0,1,0
0,0.030910921603581713,0.000501767695892734,0.029586301553034506,0.031650462126502035,0.030910906969830003,0.0005017674583474419,0.029586287546380288,0.03165044714263938,2.1268348416948833e-05,3.4524270474613475e-07,2.035693978551389e-05,2.177719139845672e-05,2.1268348416948833e-05,3.4524270474613475e-07,2.035693978551389e-05,2.177719139845672e-05,3.6990136054421754,33.02297740637764,-75.5,69.7,0.2989871809920701,0.0013088570470352295,0.29570628628082796,0.300614728082299,0.00047766794719993993,0.0002783163929604226,0.00015400068672015215,0.0010788105733476334,0.000591335565012476,0.0024368695950459152,6.920101563046704e-08,0.010638806144839173,-0.47137811360712056,0.0015839214951311467,-0.47410069909041597,-0.46892238942138076,0.46781109225365425,1.324335208864525,-1.898193359375,2.49481201171875,33.77888888888888,0.009938079899997086,33.77,33.79,0.13605442176870747,0.00033023735810106946,0,1,0
0,0.030497507571952586,0.0003770000525107574,0.029586301553034506,0.03096240860201286,0.03049749313391811,0.00037699987403257184,0.029586287546380288,0.03096239394388635,2.098389770474091e-05,2.5939596925760024e-07,2.035693978551389e-05,2.1303774194142445e-05,2.098389770474091e-05,2.5939596925760024e-07,2.035693978551389e-05,2.1303774194142445e-05,-2.9058983050847447,31.87720846384271,-67.75,67.89,0.298232543781842,0.0008323093232283006,0.29655982329657943,0.29920277759680086,0.0018265148356428002,0.0007467046636021997,0.0005613682741979781,0.0028519307091594333,0.0013359849422184423,0.004510033927140342,1.2175953557208574e-07,0.01941299420090832,-0.4777202710962466,0.0020534944736386113,-0.48117608460907413,-0.4744555287844944,-0.0762896844033606,1.3465284590486744,-2.227783203125,2.54058837890625,33.78333333333334,0.009428090415818756,33.77,33.79,0.13559322033898305,-0.00016511867905053473,0,1,0
0,0.02932886656087868,0.0005025530036096752,0.027522140979566984,0.03096240860201286,0.029328852676098544,0.0005025527656926072,0.027522127950121197,0.03096239394388635,2.0179810899545975e-05,3.457830379769799e-07,1.8936688172571062e-05,2.1303774194142445e-05,2.0179810899545975e-05,3.457830379769799e-07,1.8936688172571062e-05,2.1303774194142445e-05,2.982101694915256,31.50503207032759,-61.05,53.81,0.29636991165968257,0.0007825995323708461,0.29505280531728023,0.2978691498858466,0.0006254544453538033,0.00039897847335212705,0.00016591800035867038,0.001494147269176244,5.610283327884006e-07,5.690650837929606e-07,7.834115137769077e-08,2.372413517186256e-06,-0.4856617177942834,0.0025098032136057127,-0.4898467324224281,-0.48160678080946184,-0.15822805778560212,1.2756409912983768,-1.96685791015625,2.34222412109375,33.79210526315789,0.011040093138633402,33.77,33.81,0.13559322033898305,0.0009473684210525678,0,1,0
0,0.029085473477385857,0.00032657292332671854,0.028210194504056162,0.030274355077523685,0.029085459707832204,0.00032657276872158857,0.02821018114887423,0.03027434074513332,2.001234358917632e-05,2.246994381445221e-07,1.941010537688534e-05,2.083035698982817e-05,2.001234358917632e-05,2.246994381445221e-07,1.941010537688534e-05,2.083035698982817e-05,-0.19918367346938756,28.612432184700534,-60.12,38.3,0.29376006908360025,0.000864478721160082,0.29186959462679773,0.2952402211360803,7.195661190390995e-05,4.089604023947753e-05,2.312760721904959e-05,0.0001563930179376388,0.00018497326313980298,0.0007553332096680768,8.85076090455933e-08,0.003299235910067401,-0.4944388387562843,0.002510202205336047,-0.49853319738753266,-0.4903258889213088,0.24188446347825876,1.0630037510476373,-1.55181884765625,2.10113525390625,33.79444444444445,0.00831479419283228,33.79,33.81,0.13605442176870747,-0.0006604747162023736,0,1,0
0,0.0289912282345573,0.0003545460957957789,0.028210194504056162,0.030274355077523685,0.028991214509620944,0.0003545459279476778,0.02821018114887423,0.03027434074513332,1.9947497879079968e-05,2.43946459829261e-07,1.941010537688534e-05,2.083035698982817e-05,1.9947497879079968e-05,2.43946459829261e-07,1.941010537688534e-05,2.083035698982817e-05,0.6772203389830502,30.856342265994478,-68.18,42.22,0.2933101850672164,0.0008769117736033667,0.29148540375460313,0.29478829285711455,0.004074516653672692,0.002616666571313146,0.0002487075608211816,0.007314369745663625,0.004100590471587416,0.013682882419111357,1.0524318558302603e-07,0.059482368816827766,-0.503007791074188,0.002361909311650946,-0.5067419059707075,-0.4990047992345031,0.2015707806381339,1.1386714374484088,-1.77154541015625,2.215576171875,33.78578947368421,0.008153649149908728,33.77,33.79,0.13559322033898305,-0.0007719298245612499,0,1,0
0,0.028743787033251773,0.0003659886406984095,0.027522140979566984,0.029586301553034506,0.028743773425458224,0.00036598846743321413,0.027522127950121197,0.029586287546380288,1.9777245249618896e-05,2.518195357241418e-07,1.8936688172571062e-05,2.035693978551389e-05,1.9777245249618896e-05,2.518195357241418e-07,1.8936688172571062e-05,2.035693978551389e-05,-1.3327796610169504,29.25954669764128,-59.43,36.02,0.2912142974437545,0.0008728896904605123,0.2898502491498879,0.2924913761824188,0.0019847831273428294,0.0006132687415006342,0.0009306457039648579,0.003238227300445805,0.0006281683137350473,0.002587940525525334,7.910632442154064e-08,0.011298519846599714,-0.5098474837887017,0.0015716166097344028,-0.5122870251739468,-0.5071133379761064,-0.15291787436612822,1.356731675508702,-1.99127197265625,2.58331298828125,33.79444444444445,0.00831479419283228,33.79,33.81,0.13559322033898305,-0.0001651186790505934,0,1,0
0,0.028326419761571173,0.0004890749997803248,0.026146033930588636,0.029586301553034506,0.02832640635136628,0.000489074768243972,0.02614602155261514,0.029586287546380288,1.9490074499235677e-05,3.3650945871966e-07,1.7989853763942512e-05,2.035693978551389e-05,1.9490074499235677e-05,3.3650945871966e-07,1.7989853763942512e-05,2.035693978551389e-05,0.25911864406779817,36.83439000932151,-79.3,90.23,0.2897873509041067,0.0011190698855640092,0.28809906484236564,0.29276698190486405,0.0015560025207022427,0.0007305234460906421,0.0005078316638609253,0.002539256277707555,0.0023631689062266273,0.005459575141951587,1.089451221805704e-07,0.015756135913385975,-0.5149085748058992,0.0014695157120356613,-0.5174161268411994,-0.5125466754158632,0.025395660779020626,1.374882043243533,-2.15301513671875,2.47650146484375,33.79842105263158,0.009874559494366658,33.79,33.81,0.16271186440677965,-0.0015438596491230484,0,1,0
0,0.028374016771791622,0.00030384504240922843,0.027522140979566984,0.028898248028545334,0.028374003339053527,0.00030384489856386036,0.027522127950121197,0.02889823434762726,1.9522823758864913e-05,2.0906145438165412e-07,1.8936688172571062e-05,1.9883522581199616e-05,1.9522823758864913e-05,2.0906145438165412e-07,1.8936688172571062e-05,1.9883522581199616e-05,-1.0658163265306115,30.165419808528558,-64.59,47.15,0.2888985619293788,0.0010118964266969234,0.28689281722725896,0.2908292315138741,0.0017294849948207248,0.0007248750846042518,0.0006364822397112803,0.0027388069912595275,5.107600764485949e-07,6.450130889290374e-07,9.203627220760735e-08,2.796716455977233e-06,-0.5209099050449085,0.002083677997725286,-0.5245335997224476,-0.5177300398333123,0.3870597252478966,1.3970151026180253,-1.91802978515625,2.47955322265625,33.800000000000004,0.010000000000001563,33.79,33.81,0.13605442176870747,0.0010113519091848847,0,1,0
0,0.02757362797799813,0.0006272751099678855,0.026146033930588636,0.030274355077523685,0.027573614924177516,0.0006272748130052675,0.02614602155261514,0.03027434074513332,1.8972113949764643e-05,4.3159844158548287e-07,1.7989853763942512e-05,2.083035698982817e-05,1.8972113949764643e-05,4.3159844158548287e-07,1.7989853763942512e-05,2.083035698982817e-05,0.04938983050847538,32.25532071153479,-64.88,44.32,0.2863977093454373,0.0011588768602973432,0.2835730161125658,0.2884737159886913,0.00033143918168528855,0.00028879583487680875,8.692546581125408e-05,0.001367712793806494,0.0017417078674421633,0.007179607889458239,9.464653157953765e-08,0.03134398935994715,-0.5292615307565733,0.0026190297167885236,-0.5335565243673109,-0.5250117792987349,-0.3580645526598375,1.4975664936924746,-2.40936279296875,2.69927978515625,33.80222222222223,0.009749960430437217,33.79,33.81,0.13559322033898305,-0.000928792569659588,0,1,0
0,0.02701074984650073,0.00032115207022657776,0.026146033930588636,0.027522140979566984,0.027010737059156124,0.00032115191818777146,0.02614602155261514,0.027522127950121197,1.8584824034229348e-05,2.2096960459476734e-07,1.7989853763942512e-05,1.8936688172571062e-05,1.8584824034229348e-05,2.2096960459476734e-07,1.7989853763942512e-05,1.8936688172571062e-05,1.3850508474576269,28.679865917838793,-58.33,38.56,0.28525094163141745,0.0011665074363343768,0.2823459049707931,0.28695671349853713,0.0027551302815151937,0.0010080659727448032,0.0011239346128372077,0.004210504778457489,0.0008607513933812834,0.0036486864621656195,1.3137136630619883e-07,0.016340816318413096,-0.538135652486593,0.0023654872391265665,-0.5417937743490518,-0.5340526677396024,0.10029908741082506,1.492734607242983,-2.26287841796875,2.85797119140625,33.78999999999999,0.012977713690460725,33.77,33.81,0.13559322033898305,-0.0005614035087719428,0,1,0
0,0.026908977634614074,0.00038597515068671716,0.026146033930588636,0.028210194504056162,0.02690896489545013,0.0003859749679595704,0.02614602155261514,0.02821018114887423,1.851479937144745e-05,2.655713113431802e-07,1.7989853763942512e-05,1.941010537688534e-05,1.851479937144745e-05,2.655713113431802e-07,1.7989853763942512e-05,1.941010537688534e-05,-0.4119661016949148,27.168936091386332,-64.87,38.13,0.28388177339670323,0.0010691544647335148,0.2823084228514092,0.28654080120095976,0.003155989440634704,0.0009383168187611453,0.0012923197728853773,0.005142771782016912,0.005532158527737498,0.01168025459085264,2.688815644996678e-07,0.04253212161890267,-0.5447553600413944,0.0015203094951836778,-0.5471405846442934,-0.542141922283272,0.5200643181393985,1.5448199619126808,-2.13775634765625,2.76336669921875,33.7988888888889,0.009938079900000618,33.79,33.81,0.13559322033898305,0.0003302373581011868,0,1,0
