,net_acc_mean,net_acc_std,net_acc_min,net_acc_max,ACC_x_mean,ACC_x_std,ACC_x_min,ACC_x_max,ACC_y_mean,ACC_y_std,ACC_y_min,ACC_y_max,ACC_z_mean,ACC_z_std,ACC_z_min,ACC_z_max,BVP_mean,BVP_std,BVP_min,BVP_max,EDA_mean,EDA_std,EDA_min,EDA_max,EDA_phasic_mean,EDA_phasic_std,EDA_phasic_min,EDA_phasic_max,EDA_smna_mean,EDA_smna_std,EDA_smna_min,EDA_smna_max,EDA_tonic_mean,EDA_tonic_std,EDA_tonic_min,EDA_tonic_max,Resp_mean,Resp_std,Resp_min,Resp_max,TEMP_mean,TEMP_std,TEMP_min,TEMP_max,BVP_peak_freq,TEMP_slope,0,1,2
0,0.013193891233109972,0.016526396606527955,0.0,0.05022790728770975,0.010934467050453563,0.018100761242706664,-0.00619247878877727,0.050227883508971186,7.523495030724179e-06,1.245428667290919e-05,-4.260754838828489e-06,3.455945591494219e-05,7.523495030724179e-06,1.245428667290919e-05,-4.260754838828489e-06,3.455945591494219e-05,7.787322033898308,96.68147241546187,-303.27,166.53,0.41875163463842074,0.006240616842592118,0.40838131217386897,0.4334815069401694,0.035812149262555285,0.015557437779286623,0.012815313222606727,0.06511843071466399,0.006738195826618605,0.025767652446079148,6.581348233059003e-08,0.11540788468725083,-0.5286050417583296,0.003250196481627489,-0.5336013893441245,-0.5226968415213681,0.48126097648374494,4.606859172002923,-6.41937255859375,7.00225830078125,33.735263157894735,0.020356925900857865,33.71,33.77,0.08135593220338982,-0.0023508771929827486,0,1,0
0,0.0076294370402541145,0.004951179561018174,0.0,0.024081873357121114,-0.00507380726155295,0.007548436271495813,-0.01582522357131969,0.02408186195635605,-3.4910493161678615e-06,5.193725722186091e-06,-1.088859569922836e-05,1.656960215099968e-05,-3.4910493161678615e-06,5.193725722186091e-06,-1.088859569922836e-05,1.656960215099968e-05,0.9796949152542425,65.11684336435107,-179.65,135.37,0.4120806172828381,0.003623269967793481,0.40639111272759404,0.4186006082891733,0.02456893324406353,0.012026907907175751,0.006917024406547323,0.03942801871630015,0.027122048796465528,0.07867884306608124,1.2697015969176384e-07,0.29655847291609544,-0.5392271053955393,0.0032160816508300188,-0.5446173767096453,-0.5341360725354817,-0.6669089766788512,3.8823499144570865,-8.9569091796875,5.926513671875,33.70333333333334,0.022110831935701604,33.68,33.73,0.13559322033898305,-0.0019814241486065345,0,1,0
0,0.03637790470972706,0.005157215813437708,0.021329659259164413,0.04197126499383966,0.03637788748781325,0.005157213371924756,0.02132964916134393,0.04197124512393483,2.5029921849867733e-05,3.548437157204732e-06,1.4675933333742575e-05,2.8878449463170872e-05,2.5029921849867733e-05,3.548437157204732e-06,1.4675933333742575e-05,2.8878449463170872e-05,0.9067006802721083,48.25496459953365,-88.61,99.29,0.41339419757413914,0.00529701617881768,0.40236609502667997,0.42086074790284067,0.041084316167133594,0.009353811760742183,0.02269194419387856,0.05248165670103247,0.02696572825352679,0.06988205484555597,4.107503059902484e-08,0.2790796542103028,-0.5508983562397807,0.003322311608006855,-0.5561190529323663,-0.5452708751695217,0.5894335369731105,5.5804905977379935,-9.19952392578125,9.417724609375,33.68684210526316,0.01920872377989054,33.66,33.71,0.08163265306122448,-0.0003859649122807247,0,1,0
0,0.03252447606301525,0.006591621186518673,0.013761070489783492,0.04472347909179635,0.032524460665379715,0.006591618065934008,0.013761063975060599,0.04472345791894695,2.2378559198531598e-05,4.53538389522416e-06,9.468344086285531e-06,3.0772118280427976e-05,2.2378559198531598e-05,4.53538389522416e-06,9.468344086285531e-06,3.0772118280427976e-05,-3.659389830508476,72.18194738604141,-208.87,186.73,0.4083723448401576,0.0036758463374093322,0.4016948181514009,0.412643780806004,0.031780569190763136,0.013091530221153825,0.016543617175086657,0.04854167892709695,0.03741346376651872,0.07130716988075636,2.0438202574801778e-07,0.218636194734814,-0.5600257067400561,0.0018809143953024611,-0.562811370287021,-0.5566210042711488,-0.07154776596556973,2.889389546091847,-4.20379638671875,5.426025390625,33.64888888888888,0.016960375024970296,33.63,33.71,0.16271186440677965,-0.0007223942208463388,0,1,0
0,0.032745731002219454,0.004309806206435628,0.024081873357121114,0.03990710442037213,0.03274571549983811,0.00430980416610067,0.02408186195635605,0.03990708552767574,2.2530794295120233e-05,2.9653745424847042e-06,1.656960215099968e-05,2.745819785022804e-05,2.2530794295120233e-05,2.9653745424847042e-06,1.656960215099968e-05,2.745819785022804e-05,1.903762711864408,40.99870015812157,-117.98,74.39,0.4068165956416213,0.0031858279128788376,0.402388688454042,0.41206742916898975,0.031061070936094858,0.009465627205927162,0.01841482544731124,0.04750414997935244,0.010540711116386348,0.027470553534036705,6.905348193253502e-08,0.10589014421242127,-0.5652867081652629,0.0013443190355333242,-0.5675580636545496,-0.5630749188666352,-0.36116190642931917,3.575856733602925,-5.767822265625,5.11627197265625,33.65842105263156,0.003646422752775858,33.65,33.66,0.13559322033898305,0.0004210526315788636,0,1,0
0,0.024941940262732568,0.00885154347032348,0.007568588769380921,0.039219050895882956,0.024941928454797337,0.008851539279853495,0.00756858518628333,0.03921903232892271,1.716137365639254e-05,6.090329915391286e-06,5.2075892474570424e-06,2.6984780645913764e-05,1.716137365639254e-05,6.090329915391286e-06,5.2075892474570424e-06,2.6984780645913764e-05,3.2944406779661017,44.402723434672026,-93.56,200.4,0.39819714190777444,0.002212025024849466,0.3945655326075132,0.4019832993574387,0.009025138513941313,0.004167215668321379,0.0035260953711392525,0.016618242362622646,0.009473380039367263,0.027731035244527875,6.592573736918794e-08,0.10670266137867768,-0.570939987613492,0.0021016109477228224,-0.5747513875852039,-0.5678438035600957,0.684699219204497,2.069406711029612,-3.63616943359375,4.26788330078125,33.65222222222221,0.0041573970964146655,33.65,33.66,0.13559322033898305,-0.0005779153766768717,0,1,0
0,0.015352486804928523,0.001156922238896269,0.011696909916315968,0.018577445161207715,0.015352479536802304,0.0011569216911897682,0.01169690437880151,0.018577436366331808,1.0563322654087266e-05,7.960236703298844e-07,8.048092473342702e-06,1.2782264516485466e-05,1.0563322654087266e-05,7.960236703298844e-07,8.048092473342702e-06,1.2782264516485466e-05,-7.16602040816326,65.82391353715246,-199.62,178.49,0.3969382643605834,0.0028823461807264703,0.3917789638986178,0.3998762647632176,0.014096239454678527,0.004573441347757998,0.00608528055151511,0.01976688594202063,0.003941081735676416,0.016244920255625996,5.965063018531502e-08,0.07092060251745852,-0.5815144972365809,0.00417373027511069,-0.5889979919536179,-0.5753200071008346,0.48368042219365504,2.7456133433226646,-2.49176025390625,5.83343505859375,33.6411111111111,0.009938079899997088,33.63,33.65,0.10884353741496598,-0.00033023735810106946,0,1,0
0,0.014519333557587864,0.0011083920512560462,0.012384963440805145,0.017201338112229368,0.014519326683890482,0.0011083915265245518,0.01238495757755454,0.01720132996882575,9.990069168591074e-06,7.626323352959704e-07,8.521509677656977e-06,1.1835430107856916e-05,9.990069168591074e-06,7.626323352959704e-07,8.521509677656977e-06,1.1835430107856916e-05,6.89684745762712,24.703162630719596,-71.13,50.3,0.3885199791834855,0.001656040504525146,0.3857985263962349,0.39177645926561694,0.006415454504859355,0.003217887610433274,0.003307010326648949,0.012757988340249733,0.007814237916900077,0.019610331674209877,1.9988321614539117e-07,0.07420559783211572,-0.6020292351730467,0.007866885741201415,-0.6157753163464637,-0.5900784221118199,-0.2526616931849023,2.746603585342455,-3.631591796875,4.92706298828125,33.61210526315791,0.02418763219595006,33.57,33.63,0.13559322033898305,-0.0037894736842105947,0,1,0
0,0.024890801149425955,0.009017253743713375,0.006880535244891746,0.05504428195913397,0.024890789365700813,0.009017249474793348,0.006880531987530299,0.055044255900242395,1.7126187242558354e-05,6.204347345085643e-06,4.7341720431427655e-06,3.7873376345142124e-05,1.7126187242558354e-05,6.204347345085643e-06,4.7341720431427655e-06,3.7873376345142124e-05,-3.5894915254237314,75.12267488206453,-170.61,124.31,0.3883022122789398,0.004629908767983815,0.3808024038169359,0.39579569230297695,0.033851027746948384,0.019619358266531047,0.009252444808352748,0.06602402861809263,0.0499487620107712,0.10372694079317295,1.4609152479416743e-07,0.34430651169763893,-0.6309618989507203,0.007864072105177207,-0.6428912754542792,-0.6174587318655196,0.19099619904179918,3.8184540865179266,-5.97991943359375,5.77545166015625,33.56666666666667,0.010000000000001563,33.55,33.59,0.08135593220338982,0.0006811145510836979,0,1,0
0,0.03144451413277741,0.0024055647058571676,0.027522140979566984,0.034402676224458736,0.03144449924641394,0.0024055635670222554,0.027522127950121197,0.0344026599376515,2.163548828968238e-05,1.6551557070934106e-06,1.8936688172571062e-05,2.367086021571383e-05,2.163548828968238e-05,1.6551557070934106e-06,1.8936688172571062e-05,2.367086021571383e-05,3.636440677966101,33.78521458595995,-74.49,100.59,0.39043258763422645,0.006761744711278929,0.37861212292126106,0.3998956072618552,0.058690842939143895,0.01754386822752977,0.026388536848684623,0.08210692758064436,0.025865698365901385,0.09040873751317009,3.546397597808948e-08,0.39943989406423874,-0.6477958379905928,0.0016576177157516959,-0.6496089036084376,-0.6439498035365068,-0.05714047339654738,2.623332754694636,-3.36151123046875,4.7760009765625,33.581578947368435,0.009874559494366657,33.57,33.59,0.10847457627118644,-0.0015438596491230484,0,1,0
0,0.03093900542090781,0.001285139402052555,0.028210194504056162,0.035090729748947905,0.030938990773860794,0.0012851387936458833,0.02821018114887423,0.03509071313640453,2.1287671568145306e-05,8.84243857809661e-07,1.941010537688534e-05,2.4144277420028106e-05,2.1287671568145306e-05,8.84243857809661e-07,1.941010537688534e-05,2.4144277420028106e-05,2.14700680272108,40.20543225582215,-71.8,161.32,0.38569326390194747,0.002992278758349958,0.37934708820439816,0.3898318857853952,0.02775756576365245,0.00470041906670894,0.020345397750248614,0.03582609609647333,0.023035646359504867,0.04727689826718221,2.1744378664312336e-07,0.17606477157845368,-0.6338003209121478,0.0072704861732048424,-0.6449685715174442,-0.6216921862980455,-0.8300838044500233,2.161831770971805,-3.67279052734375,3.424072265625,33.574444444444445,0.008314794192832283,33.57,33.59,0.16326530612244897,-0.0011558307533541539,0,1,0
0,0.028442645019086277,0.0049042717934113704,0.012384963440805145,0.035090729748947905,0.028442631553858375,0.0049042694716463775,0.01238495757755454,0.03509071313640453,1.9570043621586124e-05,3.374398297513122e-06,8.521509677656977e-06,2.4144277420028106e-05,1.9570043621586124e-05,3.374398297513122e-06,8.521509677656977e-06,2.4144277420028106e-05,-8.129559322033897,29.971353296937913,-79.18,45.23,0.38690979077782517,0.0016938731776133522,0.3832495120095359,0.38969666787887075,0.012108823561372545,0.006223691255931473,0.0041126958391337785,0.024483873807326337,0.015731227562511798,0.058064739363830456,1.1770420441092888e-07,0.2592020454605491,-0.6135179041303604,0.0029514295423844214,-0.6203579357265913,-0.6106756763780672,0.11829537138453784,2.3120270410153023,-3.21197509765625,4.60052490234375,33.56684210526316,0.02078780806119165,33.53,33.59,0.13559322033898305,0.0016491228070177268,0,1,0
0,0.02178836160882387,0.002063900521740701,0.016513284587740193,0.025457980406099465,0.021788351293845966,0.0020638995446553812,0.01651327677007272,0.02545796835386211,1.4991544803285424e-05,1.4200726836050563e-06,1.1362012903542639e-05,1.7516436559628233e-05,1.4991544803285424e-05,1.4200726836050563e-06,1.1362012903542639e-05,1.7516436559628233e-05,6.456847457627118,52.409064055239774,-137.12,153.15,0.3921703254968965,0.0012244490499870684,0.3904164415121181,0.3941872305076785,0.044021155124442664,0.012461726420803258,0.02261121038937005,0.06239359060292017,0.03768786231619234,0.06967626833525722,7.373281563083367e-08,0.2171325993484361,-0.6279988195150389,0.00980088199732629,-0.6452466736492852,-0.613892020938415,0.29424749617616547,2.7358412733815767,-3.53240966796875,5.06439208984375,33.58666666666668,0.015275252316519442,33.57,33.61,0.10847457627118644,0.0003921568627449247,0,1,0
0,0.022757253306573896,0.00861253599364215,0.011696909916315968,0.0488518002387314,0.022757242532906365,0.008612531916322321,0.01169690437880151,0.04885177711146513,1.565819351956471e-05,5.92588013438813e-06,8.048092473342702e-06,3.3612621506313634e-05,1.565819351956471e-05,5.92588013438813e-06,8.048092473342702e-06,3.3612621506313634e-05,-3.54517006802721,83.26930070522427,-171.9,267.59,0.38377332552644283,0.007634418161621376,0.3661829805884275,0.39142791531825344,0.05155584289783202,0.017429953750063253,0.024638272895642924,0.07391253941984766,0.049730027983934534,0.1439578038236636,2.4155704658745947e-08,0.6120477481499189,-0.663037160338369,0.008414381312750699,-0.6740912264612098,-0.6474465038218903,0.272277093702747,2.51512042371048,-3.2745361328125,5.13763427734375,33.565555555555555,0.00831479419283228,33.55,33.57,0.13605442176870747,-0.0009907120743035606,0,1,0
0,0.02756398207227238,0.003528604943330276,0.01926549868569689,0.04747569318975305,0.027563969023018275,0.0035286032728291603,0.01926548956508484,0.04747567071395907,1.8965477056617194e-05,2.427866769000522e-06,1.3255681720799745e-05,3.2665787097685084e-05,1.8965477056617194e-05,2.427866769000522e-06,1.3255681720799745e-05,3.2665787097685084e-05,-1.1831186440677923,33.86573640330985,-99.18,69.74,0.3889181429609264,0.0015423795740119772,0.38610247594115454,0.39103966158966375,0.072593589117193,0.005183154704834368,0.06277752381024407,0.0793621987872611,0.051922014552243725,0.09587791030098317,8.686276991021202e-07,0.28164603597112126,-0.6679862871791796,0.006430230596691246,-0.6747090597493257,-0.6548545248894806,-0.3488351334413287,3.1728848904473956,-5.87921142578125,6.00128173828125,33.56999999999999,0.012977713690463034,33.55,33.59,0.16271186440677965,-0.0011228070175440352,0,1,0
0,0.02820551386783511,5.655634264419408e-05,0.027522140979566984,0.028210194504056162,0.028205500514869072,5.655631586946737e-05,0.027522127950121197,0.02821018114887423,1.9406884851685877e-05,3.8913754043673735e-08,1.8936688172571062e-05,1.941010537688534e-05,1.9406884851685877e-05,3.8913754043673735e-08,1.8936688172571062e-05,1.941010537688534e-05,2.755796610169493,19.363632817496722,-45.87,33.23,0.39004157640344145,0.000676546694850522,0.3880057751082227,0.3909203766660605,0.04282633980367517,0.01263402468733852,0.021665673996808906,0.06275199139455744,0.013368942933924398,0.02752658893396137,9.060612166100768e-08,0.10640259167191513,-0.6348471998989651,0.01073825122646225,-0.6528017215532043,-0.6182237478930935,0.09586572129275908,3.3255045452690655,-3.89251708984375,6.20880126953125,33.55888888888889,0.00993807990000062,33.55,33.57,0.16271186440677965,-0.0009907120743035606,0,1,0
0,0.028210194504056124,3.8163916471489756e-17,0.028210194504056162,0.028210194504056162,0.0282101811488742,3.122502256758253e-17,0.02821018114887423,0.02821018114887423,1.941010537688529e-05,5.082197683525802e-20,1.941010537688534e-05,1.941010537688534e-05,1.941010537688529e-05,5.082197683525802e-20,1.941010537688534e-05,1.941010537688534e-05,-1.746440677966101,20.615767074668586,-46.67,29.97,0.3862294521664903,0.0017494238127920931,0.38225273315804376,0.38822572499526015,0.008046816811349649,0.005164594855459704,0.002120268799324444,0.019341488179226884,1.3331975560149675e-07,7.972208330786154e-08,4.875831624562288e-08,2.680937806268102e-07,-0.610571563224338,0.0024010780682335985,-0.6166994575054336,-0.6084187254649066,0.0964664052201264,2.7890999015575315,-3.74298095703125,5.28717041015625,33.55000000000001,0.012977713690460725,33.53,33.57,0.16271186440677965,0.0016842105263157783,0,1,0
0,0.02822891704894018,0.00011194453674899888,0.028210194504056162,0.028898248028545334,0.028228903684894693,0.00011194448375256715,0.02821018114887423,0.02889823434762726,1.9422987477682965e-05,7.702376012871034e-08,1.941010537688534e-05,1.9883522581199616e-05,1.9422987477682965e-05,7.702376012871034e-08,1.941010537688534e-05,1.9883522581199616e-05,-0.40891156462585115,21.357836256596958,-44.91,33.59,0.3821668267463333,0.001405500977639367,0.3803092056292789,0.38461233795724753,0.0017182902740463426,0.0013277189683518602,0.0004747497588047379,0.004580397118862975,0.0026461332991035195,0.007525100486620955,2.6218372686098723e-07,0.026487635909235665,-0.6198676775121497,0.00587530295374584,-0.6300997934015636,-0.6112193432044135,0.15369207036702273,2.7288823833936573,-3.1280517578125,5.36956787109375,33.532777777777774,0.017258027296675554,33.5,33.55,0.16326530612244897,-0.002321981424148475,0,1,0
0,0.026557929918037924,0.003525485527486875,0.012384963440805145,0.03371462269996956,0.026557917345065914,0.0035254838584625574,0.01238495757755454,0.03371460673889847,1.8273259981491192e-05,2.425720445967337e-06,8.521509677656977e-06,2.3197443011399553e-05,1.8273259981491192e-05,2.425720445967337e-06,8.521509677656977e-06,2.3197443011399553e-05,1.6919322033898299,18.7286192672183,-44.75,35.48,0.3782891281172915,0.0011887094758405976,0.3751909021998946,0.38039446238581837,0.00804772154331796,0.0038812855763132995,0.003332978104332727,0.01332913215034047,0.007828107469720789,0.023284033224105074,4.4266612625465385e-08,0.09720210963646443,-0.640990643747348,0.0054076703989618495,-0.6490138096076337,-0.6313905918384278,-0.28191169078328615,3.4464638698242602,-5.64727783203125,6.47125244140625,33.52166666666666,0.01343709624716476,33.5,33.53,0.13559322033898305,3.09597523219826e-05,0,1,0
0,0.03144125666297487,0.0019356583020897294,0.022017712783653588,0.03371462269996956,0.03144124177815372,0.0019356573857164452,0.02201770236009696,0.03371460673889847,2.163324697822608e-05,1.331835255932126e-06,1.514935053805685e-05,2.3197443011399553e-05,2.163324697822608e-05,1.331835255932126e-06,1.514935053805685e-05,2.3197443011399553e-05,-1.0536949152542368,45.44746554334689,-121.15,119.85,0.3724523859017157,0.0016234856448982076,0.3705643326799755,0.37752514373744483,0.005634912376641643,0.0014638064950446012,0.0037717240909902403,0.009406844396823657,0.0034083001457233296,0.009981981055733018,4.191204913683855e-08,0.039144780030892765,-0.6551674991364621,0.0030665282953379427,-0.6599324167390423,-0.6497487937523538,0.5270392368212528,3.2686018736332167,-4.50592041015625,7.110595703125,33.523684210526305,0.01223047372486599,33.5,33.53,0.16271186440677965,-0.0007368421052631857,0,1,0
0,0.03220745783680276,0.00028185048660909134,0.031650462126502035,0.033026569175480386,0.032207442589249034,0.00028185035317631886,0.03165044714263938,0.03302655354014544,2.2160433897187373e-05,1.9392803707263783e-07,2.177719139845672e-05,2.2724025807085277e-05,2.2160433897187373e-05,1.9392803707263783e-07,2.177719139845672e-05,2.2724025807085277e-05,-1.0804067796610157,16.58535025932105,-43.49,22.89,0.3695980975198468,0.0023838468321804667,0.36484437895681976,0.3726446066665803,0.003520824672282049,0.0013852036407523598,0.001446693879795698,0.005305220017538909,0.0005385158522893963,0.0019092793761669494,6.080233105887345e-08,0.00830267853100157,-0.6650226512863855,0.002971723309705389,-0.6701932613299622,-0.6604238328867225,-0.07504218489421735,3.096780062177492,-4.64630126953125,4.42047119140625,33.50666666666666,0.012472191289246943,33.5,33.53,0.16271186440677965,0.0002476780185758608,0,1,0
0,0.03152408494853466,0.0002664264844276207,0.03096240860201286,0.031650462126502035,0.03152407002450105,0.0002664263582968281,0.03096239394388635,0.03165044714263938,2.169023721807243e-05,1.833155080582533e-07,2.1303774194142445e-05,2.177719139845672e-05,2.169023721807243e-05,1.833155080582533e-07,2.1303774194142445e-05,2.177719139845672e-05,1.5223809523809513,18.259325390572908,-42.32,27.15,0.36596497312013887,0.0008689226197426393,0.3643896770579777,0.36712587626152837,0.0034346387846416002,0.0024804230832654356,0.0005748475795714072,0.006754225459892294,0.0037179241648376176,0.01527246854018687,1.795856716668709e-07,0.06848182009718888,-0.677416092361539,0.004010325401902235,-0.6839839047129461,-0.670883791168679,0.22529164395591086,3.0958829429298205,-4.095458984375,5.41229248046875,33.49578947368421,0.0049372797471815754,33.49,33.5,0.16326530612244897,0.0002105263157894318,0,1,0
0,0.030460315489547782,0.0005400861535689136,0.029586301553034506,0.031650462126502035,0.03046030106912057,0.0005400858978830172,0.029586287546380288,0.03165044714263938,2.095830758558881e-05,3.7160782963981194e-07,2.035693978551389e-05,2.177719139845672e-05,2.095830758558881e-05,3.7160782963981194e-07,2.035693978551389e-05,2.177719139845672e-05,-0.5395593220338976,21.75234075405172,-46.09,29.5,0.36186333290041944,0.0021798629637227633,0.35690967308809335,0.36429520145071875,0.0031752615387754656,0.001969711267083759,0.0010249332282218572,0.007709918939845715,0.005003845966166136,0.017678721348313896,5.162636319139269e-08,0.0768219368825126,-0.689979560840545,0.003020558698047876,-0.6945083148884494,-0.6846876641989649,0.07089726717028971,2.294191144229828,-3.485107421875,4.28466796875,33.48277777777779,0.011928283640880949,33.47,33.5,0.16271186440677965,-0.0011248710010320028,0,1,0
0,0.030176061716882398,0.00038489517981024754,0.028210194504056162,0.03096240860201286,0.030176047431025768,0.0003848949975943767,0.02821018114887423,0.03096239394388635,2.0762725960640444e-05,2.6482823427885063e-07,1.941010537688534e-05,2.1303774194142445e-05,2.0762725960640444e-05,2.6482823427885063e-07,1.941010537688534e-05,2.1303774194142445e-05,0.5688474576271186,19.799982383842153,-44.8,27.71,0.36103154948587846,0.0014502666301676372,0.35872298109131007,0.3632473903552129,0.006814952589038088,0.001738454772057099,0.004062768669163609,0.00897547917233249,0.002755064627274885,0.006742771991215461,1.5614723558599053e-07,0.02545150465767443,-0.6979355895628525,0.001702501654896556,-0.7005937758347417,-0.6949225134451525,0.3324650653242769,2.8025466950817512,-4.08782958984375,5.02471923828125,33.47315789473686,0.017487629185090444,33.45,33.49,0.16271186440677965,-0.002947368421052606,0,1,0
0,0.02854027423539888,0.0003956578174914646,0.028210194504056162,0.029586301553034506,0.028540260723951695,0.00039565763018038053,0.02821018114887423,0.029586287546380288,1.9637217684360394e-05,2.722334980566544e-07,1.941010537688534e-05,2.035693978551389e-05,1.9637217684360394e-05,2.722334980566544e-07,1.941010537688534e-05,2.035693978551389e-05,-0.6757627118644082,21.465270397361174,-49.41,30.06,0.3578768464923947,0.0013006743967896308,0.3554473924745831,0.36007015785280033,0.0018061772543409734,0.001014660614837569,0.0005500546029057422,0.0038048234125117575,1.5724065627428014e-07,7.466894856067583e-08,8.404025764532919e-08,3.7997083163210377e-07,-0.7036839359727396,0.0018689502065795027,-0.7070512019204209,-0.700875760527319,-0.07284876355612976,2.4526793871618744,-3.59039306640625,4.38995361328125,33.45444444444445,0.00831479419282933,33.45,33.47,0.13559322033898305,-0.00016511867905053473,0,1,0
0,0.028467629496211906,0.0003329508649836877,0.028210194504056162,0.028898248028545334,0.02846761601915599,0.00033295070735913284,0.02821018114887423,0.02889823434762726,1.9587234262853284e-05,2.290877992255351e-07,1.941010537688534e-05,1.9883522581199616e-05,1.9587234262853284e-05,2.290877992255351e-07,1.941010537688534e-05,1.9883522581199616e-05,-0.3588775510204076,18.704035154293138,-45.75,26.12,0.35448802576958327,0.0011426018527829131,0.3526872478639851,0.3566995721603072,0.00022082155709050204,0.00011400461603606672,0.00011035933466699261,0.0004856888040303241,3.288671114695325e-05,0.00011612244934747034,9.580621083450647e-08,0.0005070549311656605,-0.7127164590471534,0.0033602808115632374,-0.7185101948372399,-0.7075535414889442,0.6869867481013977,3.3711187799835205,-5.87005615234375,5.30548095703125,33.44333333333332,0.009428090415822108,33.43,33.45,0.16326530612244897,-0.0014860681114553407,0,1,0
0,0.02831784913713945,0.0002499652569783887,0.028210194504056162,0.028898248028545334,0.02831783573099204,0.0002499651386406206,0.02821018114887423,0.02889823434762726,1.9484177456471902e-05,1.719893132184233e-07,1.941010537688534e-05,1.9883522581199616e-05,1.9484177456471902e-05,1.719893132184233e-07,1.941010537688534e-05,1.9883522581199616e-05,-0.07474576271186516,21.788030873443862,-55.0,26.79,0.35281332938873183,0.0017565308123619447,0.34822786721846244,0.3552714582297162,0.007149114396921303,0.003448726832642412,0.0003073767488515031,0.010851079382795066,0.012295697415004601,0.03021938871071549,2.017615581828558e-07,0.09925330578119429,-0.7263830367873707,0.004393421712023087,-0.7336521504411384,-0.7192630063507732,-0.2624521184500039,3.3170822365895796,-5.94635009765625,4.72259521484375,33.42157894736841,0.00987455949436666,33.41,33.43,0.13559322033898305,0.00042105263157901315,0,1,0
0,0.03151564082778456,0.004920618887089938,0.019953552210186066,0.04953985376322058,0.03151562590774857,0.004920616557585955,0.01995354276383787,0.04953983031021816,2.1684427216530287e-05,3.385645962284138e-06,1.372909892511402e-05,3.408603871062791e-05,2.1684427216530287e-05,3.385645962284138e-06,1.372909892511402e-05,3.408603871062791e-05,-0.033999999999998504,51.927989065693446,-155.69,180.67,0.35072038386598925,0.0023724097343517264,0.3443836550427336,0.3545599709461746,0.013289516419142479,0.0024225437900755303,0.008774120212539545,0.016903654382724724,0.005923002582393889,0.017331177431582554,3.5303572731848476e-08,0.07417954591386167,-0.7410550294747676,0.0039336296740347726,-0.7473117004530971,-0.7344605027610686,0.4039763220711003,2.240069636492615,-2.557373046875,4.99267578125,33.417777777777765,0.009749960430437216,33.41,33.43,0.10847457627118644,-0.0015892672858619616,0,1,0
0,0.024779288154052316,0.0016757723590818973,0.015825231063251018,0.028898248028545334,0.024779276423119313,0.0016757715657429956,0.01582522357131969,0.02889823434762726,1.7049460405712828e-05,1.1530199861888433e-06,1.088859569922836e-05,1.9883522581199616e-05,1.7049460405712828e-05,1.1530199861888433e-06,1.088859569922836e-05,1.9883522581199616e-05,3.855762711864409,67.49639006049088,-153.83,232.92,0.34704493568704725,0.00292714459998165,0.3418044639120372,0.35139415029424925,0.015894197443273958,0.007737743120206179,0.004862305199852305,0.025802775260981018,0.015605025348159446,0.03572791683656831,7.807988638974805e-08,0.10542530237590148,-0.7531849781233309,0.002922842002875998,-0.7575207886672518,-0.7479859863065306,0.06503538221638493,3.320014154771589,-4.42047119140625,6.19964599609375,33.416315789473664,0.009296590385609713,33.41,33.43,0.16271186440677965,0.0002456140350877577,0,1,0
0,0.02498523614777696,0.00127099744147766,0.022705766308142764,0.027522140979566984,0.024985224319344693,0.0012709968397660325,0.022705755558849988,0.027522127950121197,1.7191163514487163e-05,8.745134412060116e-07,1.5622767742371126e-05,1.8936688172571062e-05,1.7191163514487163e-05,8.745134412060116e-07,1.5622767742371126e-05,1.8936688172571062e-05,-1.7276530612244931,38.60545266907766,-85.81,60.38,0.3459394776790847,0.0012484137878525363,0.3438441076496753,0.3479918964043665,0.017574807161314446,0.0023458808137631656,0.013734145242763042,0.020968543580735615,0.016382231028760727,0.040219390760804406,2.886960334125277e-07,0.1417517557352435,-0.7597515239574193,0.0009184163274137234,-0.7609285592409196,-0.7578734971837301,0.17212803843003643,2.6359108685976924,-3.62396240234375,4.63714599609375,33.40333333333333,0.01333333333333226,33.39,33.43,0.05442176870748299,-0.0023116615067077214,0,1,0
0,0.031529587858686384,0.007550696917342254,0.017201338112229368,0.03853099737139378,0.031529572932047584,0.00755069334271496,0.01720132996882575,0.03853097913016968,2.1694023511212328e-05,5.195278707258237e-06,1.1835430107856916e-05,2.651136344159949e-05,2.1694023511212328e-05,5.195278707258237e-06,1.1835430107856916e-05,2.651136344159949e-05,-2.548576271186441,42.64339943368882,-107.54,109.22,0.3430712928337333,0.0030090848089914515,0.33828530278707647,0.34696100792168066,0.01034095315562163,0.005629771068824341,0.0034393530163697524,0.02050937190427699,0.0031255246593600104,0.013259576365883919,5.926734936156919e-08,0.059381142836955725,-0.7623785351068841,0.0010861447470925669,-0.7646475448215938,-0.7610185536129603,0.07499713755718827,3.136664249833667,-3.70941162109375,5.64727783203125,33.375263157894736,0.019833098612016768,33.34,33.39,0.08135593220338982,0.0008771929824563148,0,1,0
0,0.03570389309390075,0.0030308050222438484,0.022017712783653588,0.039219050895882956,0.035703876191075644,0.0030308035874096273,0.02201770236009696,0.03921903232892271,2.456616622115168e-05,2.085354103109352e-06,1.514935053805685e-05,2.6984780645913764e-05,2.456616622115168e-05,2.085354103109352e-06,1.514935053805685e-05,2.6984780645913764e-05,2.8100000000000005,16.702628921261343,-39.06,28.07,0.3408665215339072,0.0010868526409992623,0.338752217075581,0.34287721264994325,0.010016282961712876,0.003560749016020569,0.005145825796234886,0.016300468949616502,0.010260861689225144,0.0238244484288715,2.4455308381132745e-07,0.08610732904740392,-0.7709075049941044,0.004157306673076795,-0.7784940235084561,-0.7650761967660842,0.024606276845621316,3.572590528401678,-6.585693359375,6.35833740234375,33.38999999999999,7.105427357601002e-15,33.39,33.39,0.16271186440677965,0.0,0,1,0
0,0.03158025258318679,0.006934959265538219,0.011008856391826794,0.043347372042818,0.03158023763256252,0.00693495598241153,0.01100885118004848,0.04334735152144089,2.172888352046547e-05,4.77161864690971e-06,7.574675269028425e-06,2.9825283871799426e-05,2.172888352046547e-05,4.77161864690971e-06,7.574675269028425e-06,2.9825283871799426e-05,-5.0200340136054455,41.937410964844005,-101.35,137.38,0.33746179828333134,0.0046864769921083505,0.3286934641795944,0.3423642388505211,0.018095292272134158,0.0057853747366922465,0.008325599095113018,0.02630522024707777,0.009820116846318575,0.038812380090961655,3.359071953923376e-08,0.16970962357448377,-0.7884504361127419,0.005244860500036446,-0.796493346633845,-0.7795597589462719,1.580094462884567,5.080114941976427,-7.464599609375,7.28302001953125,33.39444444444444,0.008314794192829322,33.39,33.41,0.05442176870748299,-0.0006604747162021389,0,1,0
0,0.025230178901369926,0.0042912228667691815,0.019953552210186066,0.036466836797926255,0.02523016695697768,0.004291220835231895,0.01995354276383787,0.03646681953391059,1.73596970798215e-05,2.95258822223695e-06,1.372909892511402e-05,2.5091111828656657e-05,1.73596970798215e-05,2.95258822223695e-06,1.372909892511402e-05,2.5091111828656657e-05,8.285457627118646,42.37983647168601,-88.58,120.73,0.34076338040727966,0.005297130520177055,0.33197034113785195,0.34661627771454667,0.03901398706613671,0.018751722329266127,0.008444644480895262,0.05900112836760943,0.050301943666790284,0.07730036465267391,1.4743404261885473e-06,0.2768224960574226,-0.7998570503850665,0.0011318013646197463,-0.8011050841820815,-0.797222468844824,-4.978948550543773,3.8383484225343953,-9.66644287109375,3.08380126953125,33.38157894736842,0.00987455949436666,33.37,33.39,0.13559322033898305,0.0001403508771930044,0,1,0
0,0.023459348739726105,0.0013292842055525776,0.01926549868569689,0.025457980406099465,0.02345933763367472,0.001329283576247011,0.01926548956508484,0.02545796835386211,1.614127229947722e-05,9.146178166866234e-07,1.3255681720799745e-05,1.7516436559628233e-05,1.614127229947722e-05,9.146178166866234e-07,1.3255681720799745e-05,1.7516436559628233e-05,-8.230203389830509,37.33997635051392,-150.36,42.7,0.3442667258810801,0.0012784228310944517,0.340625117517393,0.3457383129268821,0.04131724013440295,0.005566460096244096,0.030419259851565027,0.05138502240413008,0.01813548793015261,0.04147038590814244,1.7598096857529555e-07,0.16549153384324666,-0.7904844917283772,0.004950180716584152,-0.7979683136619038,-0.7820540814742467,2.594499768509541,1.3736379397659102,-2.17437744140625,4.09393310546875,33.38999999999999,0.01333333333333305,33.37,33.41,0.08135593220338982,0.0013209494324045712,0,1,0
0,0.02547657644730178,0.00030922035012767097,0.024081873357121114,0.026146033930588636,0.025476564386260902,0.0003092202037375426,0.02408186195635605,0.02614602155261514,1.7529231619204316e-05,2.127599503006793e-07,1.656960215099968e-05,1.7989853763942512e-05,1.7529231619204316e-05,2.127599503006793e-07,1.656960215099968e-05,1.7989853763942512e-05,2.582305084745764,17.32585531750726,-41.91,29.95,0.34119003821874844,0.0017165033846861838,0.33841008344234136,0.3444311167529451,0.014814960817058891,0.00575197268132452,0.006120593468030324,0.02744502423778962,0.0033640496441745328,0.014270519463646315,5.4581404423936775e-08,0.06390873593735891,-0.7741832344071596,0.0034946756692978867,-0.7810488425346342,-0.7701319403857714,0.778953609040594,0.6834164142305778,-0.51727294921875,2.22320556640625,33.38999999999999,0.012977713690460729,33.37,33.41,0.16271186440677965,-0.0011228070175436612,0,1,0
0,0.025457980406099374,9.020562075079397e-17,0.025457980406099465,0.025457980406099465,0.025457968353862173,6.245004513516506e-17,0.02545796835386211,0.02545796835386211,1.7516436559628254e-05,2.0328790734103208e-20,1.7516436559628233e-05,1.7516436559628233e-05,1.7516436559628254e-05,2.0328790734103208e-20,1.7516436559628233e-05,1.7516436559628233e-05,0.04350340136054542,17.38067461208215,-36.98,26.01,0.337484603764211,0.0013208448941932915,0.33498267319613123,0.34004461582492973,0.003095416523540127,0.0010427270595978501,0.0017909767236582435,0.005429187552012457,0.007654335141607783,0.02058093685003448,5.577514056165356e-08,0.08478182597230122,-0.7731698020276659,0.002603798063839561,-0.7783105451822381,-0.7701309401103291,0.5627397863799821,2.9499533312327895,-6.365966796875,4.61578369140625,33.36444444444445,0.013833221775541013,33.34,33.39,0.16326530612244897,-0.0018369453044373239,0,1,0
0,0.025457980406099374,9.020562075079397e-17,0.025457980406099465,0.025457980406099465,0.025457968353862173,6.245004513516506e-17,0.02545796835386211,0.02545796835386211,1.7516436559628254e-05,2.0328790734103208e-20,1.7516436559628233e-05,1.7516436559628233e-05,1.7516436559628254e-05,2.0328790734103208e-20,1.7516436559628233e-05,1.7516436559628233e-05,1.5957627118644073,20.0618747965008,-48.27,35.19,0.3371523639543853,0.0014863804784963288,0.33455736617656057,0.33948729200875183,0.013476531710292781,0.0021975020942002644,0.007962439240040923,0.016371977566814598,0.008873507188827998,0.022705009767146473,2.436477452572028e-07,0.09152226237970573,-0.7870713053335392,0.004960974913575413,-0.7952430955315107,-0.779144115398051,-0.6120436168626862,3.046544850714666,-6.09283447265625,3.851318359375,33.37888888888889,0.009938079900000618,33.37,33.39,0.13559322033898305,0.0006604747162023736,0,1,0
0,0.02430967486185064,0.0020848051151552602,0.019953552210186066,0.026834087455077812,0.024309663353240463,0.002084804128173352,0.01995354276383787,0.02683407475136817,1.672634163080645e-05,1.4344561491631958e-06,1.372909892511402e-05,1.8463270968256787e-05,1.672634163080645e-05,1.4344561491631958e-06,1.372909892511402e-05,1.8463270968256787e-05,-1.0376271186440693,39.180393624093746,-112.98,118.87,0.3314991625566252,0.002781521692911926,0.3266057010948951,0.3347017270946829,0.011862661426981643,0.003314290273565698,0.005586102159763177,0.016376946308474298,0.00537466076582207,0.02279861896714408,5.778745881812597e-08,0.10210100836104066,-0.8037392539976793,0.00440207198443759,-0.8106358205206454,-0.7961737864397803,0.42768956413931647,1.849908975580428,-2.24456787109375,4.10614013671875,33.358421052631584,0.01724838906123476,33.33,33.37,0.13559322033898305,-0.002438596491227859,0,1,0
0,0.02132029798672231,7.970836264601055e-05,0.020641605734675238,0.021329659259164413,0.021320287893333695,7.970832491072737e-05,0.020641595962590898,0.02132964916134393,1.4669492283343746e-05,5.484356792207196e-08,1.4202516129428297e-05,1.4675933333742575e-05,1.4669492283343746e-05,5.484356792207196e-08,1.4202516129428297e-05,1.4675933333742575e-05,-0.7708813559322033,31.724816098936618,-99.97,61.03,0.3249934287873578,0.0013672621747844948,0.32231913446928356,0.32673264793866746,0.0021129156420734772,0.0013062346838975858,0.0005998521004152804,0.0049514703000534364,2.0746156259673138e-07,6.597874298257262e-08,1.1351062920855748e-07,3.8376447775503864e-07,-0.816466896431955,0.002984554050349937,-0.8210919613816812,-0.8113173130041358,0.3361057206928231,2.7532066933362733,-3.60565185546875,4.91485595703125,33.34000000000002,1.4210854715202004e-14,33.34,33.34,0.16271186440677965,0.0,0,1,0
0,0.02117519826387087,0.0002870875008437942,0.020641605734675238,0.021329659259164413,0.021175188239174882,0.0002870873649317294,0.020641595962590898,0.02132964916134393,1.4569656002161815e-05,1.9753137976285497e-07,1.4202516129428297e-05,1.4675933333742575e-05,1.4569656002161815e-05,1.9753137976285497e-07,1.4202516129428297e-05,1.4675933333742575e-05,0.7553061224489811,23.690355246576825,-58.88,33.4,0.32308851904555524,0.000998787553627162,0.3214032696494744,0.32463205627694613,0.003786282574404085,0.0011784448321585845,0.0005293572927624044,0.004896481624202982,0.003917683122328741,0.011427120731052485,2.505069347236155e-07,0.046834195593318285,-0.8252487804807989,0.0021128243562965015,-0.828531857926621,-0.8215651891753406,-0.4299638141957364,2.789972850577991,-4.47845458984375,4.06036376953125,33.34473684210528,0.010939268258327575,33.34,33.37,0.16326530612244897,0.0012631578947365908,0,1,0
0,0.020822917136398708,0.0003031140455191515,0.020641605734675238,0.021329659259164413,0.020822907278478495,0.00030311390201984975,0.020641595962590898,0.02132964916134393,1.43272679602949e-05,2.085584898712703e-07,1.4202516129428297e-05,1.4675933333742575e-05,1.43272679602949e-05,2.085584898712703e-07,1.4202516129428297e-05,1.4675933333742575e-05,0.4915593220338987,17.66275578654969,-42.53,29.54,0.3205809752274018,0.0007400065425074462,0.3195179787353989,0.3221459280698098,0.0014514229726294826,0.000855505973370695,0.0004271772772139531,0.003228749736251815,2.495123393031253e-07,1.0025702360582881e-07,9.406091768145164e-08,4.176008444808921e-07,-0.8314909837260946,0.0015916188409277913,-0.8340985974602911,-0.828856699883138,0.37401029496247673,2.696918538707591,-3.03802490234375,5.18951416015625,33.3388888888889,0.008748897637791166,33.33,33.37,0.16271186440677965,-0.0011971104231168535,0,1,0
0,0.020786705457526675,0.0002806821086902033,0.020641605734675238,0.021329659259164413,0.020786695616749666,0.0002806819758105576,0.020641595962590898,0.02132964916134393,1.4302352410610225e-05,1.9312413128877585e-07,1.4202516129428297e-05,1.4675933333742575e-05,1.4302352410610225e-05,1.9312413128877585e-07,1.4202516129428297e-05,1.4675933333742575e-05,-0.07542372881355956,24.187014524329253,-49.13,101.2,0.3182255921877715,0.0011353419772590285,0.3163338442545508,0.32086477660560814,0.00025325258689097883,0.0002494954736303046,5.916248925947538e-05,0.0011169197669101722,0.0008101236174971396,0.0034285658330021544,6.864173699144133e-08,0.015356288694001224,-0.8374889432203613,0.00194082014867328,-0.8407797901617604,-0.8344128498148006,-0.0831310565655048,2.979425602683615,-4.24957275390625,5.07965087890625,33.338421052631595,0.0036464227527784492,33.33,33.34,0.16271186440677965,0.00042105263157916277,0,1,0
0,0.02068809583768124,0.0001727030675745213,0.020641605734675238,0.021329659259164413,0.02068808604358769,0.00017270298581397649,0.020641595962590898,0.02132964916134393,1.4234503778368464e-05,1.1882884182350582e-07,1.4202516129428297e-05,1.4675933333742575e-05,1.4234503778368464e-05,1.1882884182350582e-07,1.4202516129428297e-05,1.4675933333742575e-05,-0.4605084745762706,20.596034588201746,-62.32,32.27,0.31653293989145015,0.001412683781225226,0.3132663275666094,0.3186990126975522,0.0008896836857480254,0.0003914442246926083,0.0003172838776553805,0.0014392782014455011,1.2431984583984612e-07,6.454070377567752e-08,7.444751801664873e-08,3.110909554890351e-07,-0.8445783560771102,0.002099715079145943,-0.8480367925909849,-0.841168945240816,-0.21463761668452336,2.352240146950106,-3.52935791015625,4.1229248046875,33.33555555555556,0.004969039950002075,33.33,33.34,0.16271186440677965,0.00016511867905065207,0,1,0
0,0.02072585718665348,0.00022554645046315996,0.020641605734675238,0.021329659259164413,0.020725847374683075,0.00022554634368566622,0.020641595962590898,0.02132964916134393,1.4260485583017813e-05,1.551878832399728e-07,1.4202516129428297e-05,1.4675933333742575e-05,1.4260485583017813e-05,1.551878832399728e-07,1.4202516129428297e-05,1.4675933333742575e-05,-0.405136054421769,17.848660875525542,-41.51,24.89,0.3143664387680624,0.0006893725233057303,0.3128870091794956,0.3160865260760297,0.0007359081142567044,0.0006168252078110005,0.00013336215629214263,0.0017711264626473504,0.0011431274013890085,0.0029412185137703654,3.443441989048335e-07,0.011917003059541628,-0.8518533845408032,0.002059290522051585,-0.855194263141187,-0.8484454137479032,-0.19627800650395472,2.6400246946233006,-3.59954833984375,4.69512939453125,33.34000000000002,1.4210854715202004e-14,33.34,33.34,0.16326530612244897,0.0,0,1,0
0,0.020697773369327398,0.00018839197382646288,0.020641605734675238,0.021329659259164413,0.020697763570652332,0.00018839188463852454,0.020641595962590898,0.02132964916134393,1.4241162431821308e-05,1.2962363884464887e-07,1.4202516129428297e-05,1.4675933333742575e-05,1.4241162431821308e-05,1.2962363884464887e-07,1.4202516129428297e-05,1.4675933333742575e-05,0.4436949152542378,17.90236653919067,-44.14,25.15,0.31269761803182394,0.0008673679442460099,0.31110259538385565,0.3144883866554141,0.0014578838009618369,0.0006535629361930658,0.0005698774819146944,0.002475259719046077,0.0012507621344112249,0.005301208358857203,8.328707526428225e-08,0.023741882850488002,-0.8590883994907907,0.0021518774833091244,-0.8626668022967783,-0.855580531026487,-0.17998082466220144,2.29139608375228,-3.26385498046875,3.93829345703125,33.33210526315791,0.011955596517474845,33.31,33.34,0.16271186440677965,-0.0005263157894739036,0,1,0
0,0.02071134088918425,0.00020765001099528344,0.020641605734675238,0.021329659259164413,0.0207113310840861,0.0002076499126902665,0.020641595962590898,0.02132964916134393,1.4250497602838536e-05,1.4287418664732505e-07,1.4202516129428297e-05,1.4675933333742575e-05,1.4250497602838536e-05,1.4287418664732505e-07,1.4202516129428297e-05,1.4675933333742575e-05,-1.3590169491525417,19.34685798647588,-45.04,25.97,0.309982563686517,0.0017252426151775622,0.3060804584972672,0.31270929965518895,0.0013012303317634039,0.0005328114910072501,0.0005596022412936641,0.002168852986661777,0.001148214797411913,0.00407982773558157,6.499061879286505e-08,0.017743878043433792,-0.8667938829293959,0.002327033847345716,-0.8707030926716743,-0.8630793476819213,-0.12268388341607198,2.2984380675515212,-2.99224853515625,4.26788330078125,33.33444444444446,0.004969039950002076,33.33,33.34,0.16271186440677965,0.0,0,1,0
0,0.02070713464176942,0.00020197365624539143,0.020641605734675238,0.021329659259164413,0.02070712483866258,0.00020197356062765672,0.020641595962590898,0.02132964916134393,1.4247603482220143e-05,1.389685544533985e-07,1.4202516129428297e-05,1.4675933333742575e-05,1.4247603482220143e-05,1.389685544533985e-07,1.4202516129428297e-05,1.4675933333742575e-05,0.2790169491525425,19.05794392087557,-44.48,27.47,0.3076154528187384,0.0013372977313221646,0.30560470818418906,0.3097531554907144,0.0014259077937231169,0.000724744975347659,0.0005114756030599168,0.0032261448952794107,0.0018517795470262062,0.0067705920742958635,7.962132276759237e-08,0.030198341109876167,-0.8754737437346146,0.0025696727087035614,-0.8795848015885497,-0.8711855818742096,0.08108219496961266,3.1854058195513617,-4.1778564453125,5.18951416015625,33.33421052631579,0.004937279747185084,33.33,33.34,0.16271186440677965,0.0004912280701756899,0,1,0
0,0.020702454005548408,0.0001953569941545857,0.020641605734675238,0.021329659259164413,0.020702444204657455,0.00019535690166928992,0.020641595962590898,0.02132964916134393,1.4244382957020725e-05,1.3441594109203603e-07,1.4202516129428297e-05,1.4675933333742575e-05,1.4244382957020725e-05,1.3441594109203603e-07,1.4202516129428297e-05,1.4675933333742575e-05,1.6369047619047608,19.62335715064264,-44.41,28.49,0.3057546272306254,0.0020320542422131715,0.3004073371097984,0.30736714103904716,0.00241172746382432,0.0010223648037706314,0.000979081677385643,0.004844812480924512,0.0033097365134483825,0.013643324013883615,5.8281970270746e-08,0.05956260234073192,-0.8829475522085003,0.001631432069315475,-0.8852879170240913,-0.8800013108671059,-0.005995132787056064,2.286623970540028,-3.26385498046875,3.99932861328125,33.33555555555555,0.004969039950002075,33.33,33.34,0.13605442176870747,-0.0004953560371519562,0,1,0
0,0.020692744847981843,0.0001804750349496806,0.020641605734675238,0.021329659259164413,0.020692735051687373,0.00018047494950975554,0.020641595962590898,0.02132964916134393,1.4237702543262478e-05,1.2417636630497891e-07,1.4202516129428297e-05,1.4675933333742575e-05,1.4237702543262478e-05,1.2417636630497891e-07,1.4202516129428297e-05,1.4675933333742575e-05,-0.6567118644067791,18.2537429558989,-43.02,24.71,0.30566559429825174,0.0007694486668287071,0.3047503396517624,0.30760926495239505,0.004614234740673205,0.0007931308670183184,0.003461642426161937,0.005961408963823181,0.001637590606139543,0.004782515766384826,1.4716748779342037e-07,0.016539798345912085,-0.8865889033391239,0.0005930092904667424,-0.8874849154646455,-0.8854706720590166,0.09931843570680832,3.0026145074501738,-4.16107177734375,5.09490966796875,33.33105263157895,0.00306892204992015,33.33,33.34,0.16271186440677965,-0.0002982456140352403,0,1,0
0,0.020847553728399852,0.00031510104224599466,0.020641605734675238,0.021329659259164413,0.020847543858816268,0.0003151008930718461,0.020641595962590898,0.02132964916134393,1.4344219238202645e-05,2.168061774080205e-07,1.4202516129428297e-05,1.4675933333742575e-05,1.4344219238202645e-05,2.168061774080205e-07,1.4202516129428297e-05,1.4675933333742575e-05,-0.7857288135593232,19.377526964205,-42.77,25.42,0.3038982364468569,0.0007891736908957494,0.3024560339120185,0.3048790797025499,0.0019088276286576963,0.0005321553666757931,0.001091906078937681,0.0031270263132930905,0.000925929320444338,0.0038157502373055525,1.3774793611309732e-07,0.01665867047898193,-0.8889011629695719,0.0009743222440651443,-0.8908001094648782,-0.8875848829713919,0.22581776883193067,2.2072368075774627,-2.88238525390625,4.23126220703125,33.32666666666665,0.007453559924997816,33.31,33.33,0.16271186440677965,-0.000928792569659258,0,1,0
0,0.021423271983584707,0.002036103656171905,0.018577445161207715,0.027522140979566984,0.021423261841446377,0.0020361026922460883,0.018577436366331808,0.027522127950121197,1.4740343837730922e-05,1.4009469703895777e-06,1.2782264516485466e-05,1.8936688172571062e-05,1.4740343837730922e-05,1.4009469703895777e-06,1.2782264516485466e-05,1.8936688172571062e-05,-1.0382653061224456,65.06870565144278,-210.38,130.95,0.301664381952483,0.0018218909248510838,0.2970976513988607,0.30427275418110816,0.00079105340049254,0.00041168615466552743,0.0002888766761926919,0.00165400963967749,0.0006499343971518509,0.0026773280701989227,7.799735443625444e-08,0.011688838656627709,-0.8947367911164912,0.0023554200401571888,-0.8987577523729118,-0.8911314298454835,0.056050018992080876,2.2731782005905323,-2.87322998046875,4.193115234375,33.315555555555555,0.008958064164774383,33.31,33.33,0.10884353741496598,2.063983488131684e-05,0,1,0
0,0.02072528792008608,0.0007326580639743177,0.01926549868569689,0.025457980406099465,0.02072527810838513,0.0007326577171216306,0.01926548956508484,0.02545796835386211,1.4260093897520578e-05,5.041074858566316e-07,1.3255681720799745e-05,1.7516436559628233e-05,1.4260093897520578e-05,5.041074858566316e-07,1.3255681720799745e-05,1.7516436559628233e-05,2.544203389830508,48.09941937659343,-172.24,127.79,0.30041791332898504,0.0012904840651329643,0.2979673300163255,0.30262852170420146,0.0033126664885991773,0.0016117344458025588,0.001017205382221368,0.00548707221401332,0.002735018454488695,0.011597668379333397,1.0154606792933674e-07,0.051939756880521194,-0.9032644596357932,0.002270089681838973,-0.906591043811153,-0.8992540903947841,-0.07609800428669743,2.5590556611070547,-3.77349853515625,4.68292236328125,33.3215789473684,0.009874559494363151,33.31,33.33,0.16271186440677965,-0.0009824561403506816,0,1,0
0,0.01930294377546499,0.0013591104002317344,0.016513284587740193,0.022017712783653588,0.019302934637125777,0.0013591097568059448,0.01651327677007272,0.02201770236009696,1.32814459223951e-05,9.351398156267845e-07,1.1362012903542639e-05,1.514935053805685e-05,1.32814459223951e-05,9.351398156267845e-07,1.1362012903542639e-05,1.514935053805685e-05,-0.8549830508474572,43.34953278245731,-132.61,103.28,0.3015158398752143,0.002657525230803547,0.29588031933397124,0.3064229110953172,0.012965853266937789,0.005872134896882456,0.002137795751347029,0.020180128868549405,0.014837245655777521,0.034452340498273885,1.0641916720066646e-07,0.10958381269660006,-0.907537100783895,0.0002822486390457055,-0.907831915510671,-0.9068326383771952,0.43110742429898385,2.597377362377583,-3.40728759765625,4.74395751953125,33.32333333333333,0.009428090415818758,33.31,33.33,0.16271186440677965,-0.00016511867905053473,0,1,0
0,0.02109255973383366,0.0010841169057503087,0.020641605734675238,0.02476992688161029,0.021092549748260102,0.001084116392511078,0.020641595962590898,0.02476991515510908,1.4512796324147788e-05,7.459297516878423e-07,1.4202516129428297e-05,1.7043019355313955e-05,1.4512796324147788e-05,7.459297516878423e-07,1.4202516129428297e-05,1.7043019355313955e-05,0.638711864406779,20.997574235240492,-48.0,32.38,0.30086002224804376,0.0010919564874516624,0.29866739575826534,0.3028149260052453,0.006892088341282329,0.0032960500613568337,0.0023041283870362914,0.012752597488127949,0.0005531629771967522,0.002343755239780204,7.583354696971689e-08,0.010496872895761622,-0.9053772187249414,0.0011390388797811156,-0.90712311743012,-0.903464115895843,-1.0347479922008278,3.0998970448671774,-7.20672607421875,4.9774169921875,33.3078947368421,0.0188006011573614,33.29,33.34,0.16271186440677965,0.0015087719298247347,0,1,0
0,0.030077768356241045,0.004296518116064251,0.023393819832631935,0.035090729748947905,0.03007775411691818,0.004296516082020098,0.02339380875760302,0.03509071313640453,2.0695094931452636e-05,2.9562316337277652e-06,1.6096184946685404e-05,2.4144277420028106e-05,2.0695094931452636e-05,2.9562316337277652e-06,1.6096184946685404e-05,2.4144277420028106e-05,-1.262074829931976,63.31901861055588,-257.26,99.25,0.3009844306961769,0.002142435144189733,0.2982296054615555,0.30452057421802314,0.005449310258121887,0.004761156279256915,0.0007542517419606391,0.012259493073171892,0.0072102064992670845,0.027500466923977156,1.1056747012405665e-07,0.1202415284467014,-0.902061349570363,0.0005909653298580539,-0.9032610705515036,-0.9014052839952617,1.0719677946407802,5.164671433096238,-7.2845458984375,11.59820556640625,33.31444444444443,0.008314794192829326,33.31,33.33,0.10884353741496598,0.0006604747162021389,0,1,0
0,0.034023544690556545,0.00039467506525243246,0.033026569175480386,0.034402676224458736,0.03402352858323654,0.0003946748784065984,0.03302655354014544,0.0344026599376515,2.3409997674561037e-05,2.715573125551249e-07,2.2724025807085277e-05,2.367086021571383e-05,2.3409997674561037e-05,2.715573125551249e-07,2.2724025807085277e-05,2.367086021571383e-05,-1.7997627118644046,31.846509048681654,-90.96,56.44,0.3007920876380839,0.0014509820249145172,0.2974046143427108,0.3022463947605377,0.004806503198303241,0.002137704365532987,0.0024052069846300203,0.009536672007606533,0.0015200008946764298,0.006264284448437901,8.66132114918372e-08,0.027348306350696516,-0.9022661417188957,0.0007605892008335145,-0.9038382319817433,-0.901411272228487,0.4550840334606733,4.6140304939356875,-4.72564697265625,8.49456787109375,33.30444444444444,0.008958064164777567,33.29,33.31,0.18983050847457628,-0.0013415892672860716,0,1,0
0,0.034393378203857496,0.00022603945137156063,0.033026569175480386,0.035090729748947905,0.03439336192145215,0.00022603934436067166,0.03302655354014544,0.03509071313640453,2.366446268592578e-05,1.5552709393139807e-07,2.2724025807085277e-05,2.4144277420028106e-05,2.366446268592578e-05,1.5552709393139807e-07,2.2724025807085277e-05,2.4144277420028106e-05,3.6601694915254237,20.020099552024398,-45.55,32.51,0.2988318536890388,0.00110544504100149,0.2972148442012834,0.3008227696318688,0.0030998779565505753,0.0006074502921256981,0.0019124195131507966,0.003924390843723121,0.0021440053967708137,0.0072061781919665864,1.8670566633016694e-07,0.031433415874987616,-0.9078320348232655,0.0025413635434230453,-0.9124017789992267,-0.9041289990510841,-0.8292139020214602,2.703947329753971,-4.35028076171875,4.327392578125,33.29842105263157,0.009874559494366657,33.29,33.31,0.18983050847457628,0.0015438596491230484,0,1,0
0,0.02302873020739278,0.006138054350160672,0.011696909916315968,0.033026569175480386,0.02302871930520343,0.006138051444302197,0.01169690437880151,0.03302655354014544,1.5844983981130875e-05,4.223305930362789e-06,8.048092473342702e-06,2.2724025807085277e-05,1.5844983981130875e-05,4.223305930362789e-06,8.048092473342702e-06,2.2724025807085277e-05,-3.7696271186440686,44.384062816109434,-152.71,94.5,0.29513313809619,0.002197068811222409,0.2920559979464195,0.29923062106420645,0.0015305303508918915,0.0008256636382145442,0.0004792350964692349,0.0030738542338497347,2.001181105488948e-07,3.338043502986204e-07,5.888395353259579e-08,1.5177944965322904e-06,-0.9181277579244528,0.003100760348167392,-0.923067383382766,-0.9129958690839817,0.4397191951040374,3.4542454047633773,-3.00445556640625,9.18426513671875,33.309999999999995,7.105427357601002e-15,33.31,33.31,0.05423728813559322,0.0,0,1,0
0,0.02322063629245437,0.007746216789234487,0.008256642293870096,0.0460995861407747,0.0232206252994135,0.007746213122044796,0.00825663838503636,0.046099564316453005,1.5977025514306992e-05,5.329806716845617e-06,5.681006451771319e-06,3.1718952689056526e-05,1.5977025514306992e-05,5.329806716845617e-06,5.681006451771319e-06,3.1718952689056526e-05,2.8685374149659832,55.90194633752416,-162.08,122.38,0.2952524893863492,0.0010594831953141778,0.29301027160019233,0.29701741662097925,0.008855810491928821,0.0029128019248204017,0.0007335917108994992,0.011500293426206301,0.00880030313421011,0.023320316503078146,8.956991864872421e-08,0.09666927984510028,-0.9269424431342528,0.0016884647930999915,-0.9289436592737662,-0.9235851335951935,0.27131215176841084,2.0561335111852426,-3.05328369140625,3.86810302734375,33.309999999999995,0.012977713690460729,33.29,33.33,0.10884353741496598,-0.0005614035087721423,0,1,0
0,0.0192469026444945,0.0019427301243498897,0.00894469581835927,0.024081873357121114,0.019246893532686122,0.0019427292046286775,0.00894469158378939,0.02408186195635605,1.32428866612237e-05,1.3367010435556908e-06,6.154423656085595e-06,1.656960215099968e-05,1.32428866612237e-05,1.3367010435556908e-06,6.154423656085595e-06,1.656960215099968e-05,-3.069491525423733,52.7362841361355,-105.97,149.91,0.29538513412371753,0.002130583390470807,0.2898767686121714,0.297632078171184,0.012533632779273933,0.002763305336366063,0.005989968264394997,0.014997563783901907,0.01301466212426045,0.02213722568766249,2.8913691890730675e-07,0.06666389777026212,-0.9283318831576426,0.0006196255538809604,-0.9289991990120304,-0.9271005149585204,0.7979797495842867,2.2764563622394225,-3.39508056640625,4.205322265625,33.309999999999995,7.105427357601002e-15,33.31,33.31,0.16271186440677965,0.0,0,1,0
0,0.020552673646475925,0.0007100387843175471,0.019953552210186066,0.022705766308142764,0.020552663916493564,0.0007100384481732103,0.01995354276383787,0.022705755558849988,1.4141326150639393e-05,4.885442255032156e-07,1.372909892511402e-05,1.5622767742371126e-05,1.4141326150639393e-05,4.885442255032156e-07,1.372909892511402e-05,1.5622767742371126e-05,4.815966101694918,19.51030621167764,-39.01,38.38,0.2947382174476536,0.0016509581116672988,0.2918409884111941,0.2972757510636145,0.006226943989613763,0.003597160883809347,0.0017756208124947398,0.013191320622316581,2.8466840236221627e-07,2.0026601349819206e-07,9.801803349529514e-08,7.69622489654731e-07,-0.9254330473837415,0.0007876462637210821,-0.926909512836585,-0.9244537154528059,-0.44853409229969565,2.297988993133332,-4.34112548828125,3.204345703125,33.312105263157896,0.006137844099835937,33.31,33.33,0.16271186440677965,0.0005964912280700568,0,1,0
0,0.021520268681489062,0.0009183295850989212,0.018577445161207715,0.024081873357121114,0.021520258493430967,0.0009183291503462055,0.018577436366331808,0.02408186195635605,1.4807082694397188e-05,6.318593094038577e-07,1.2782264516485466e-05,1.656960215099968e-05,1.4807082694397188e-05,6.318593094038577e-07,1.2782264516485466e-05,1.656960215099968e-05,-3.314542372881356,36.954097101501304,-85.03,76.14,0.29296684331158257,0.0009384048977153153,0.29166530955180253,0.29515485078996917,0.0006635973852205968,0.00041334844352911113,0.0001873339794242059,0.0015678068409042858,1.170988089438096e-07,2.5640109629607367e-08,7.875336938308053e-08,1.5391024368524575e-07,-0.9249917478436566,0.0005003226280731227,-0.9259919338980477,-0.9244393880813649,0.29235281191218393,1.5283191518283643,-2.53448486328125,3.35235595703125,33.32555555555555,0.00831479419282933,33.31,33.33,0.05423728813559322,0.0008255933952526737,0,1,0
0,0.022995965753845656,0.004613108353781461,0.014449124014272667,0.03096240860201286,0.0229959548671676,0.0046131061698581515,0.01444911717381363,0.03096239394388635,1.5822440304734976e-05,3.1740624563582403e-06,9.941761290599808e-06,2.1303774194142445e-05,1.5822440304734976e-05,3.1740624563582403e-06,9.941761290599808e-06,2.1303774194142445e-05,3.5656802721088425,25.66376488238992,-83.58,52.18,0.29191614621777984,0.0006903935547393406,0.2905540464865314,0.2932195453308327,0.00011237735669738406,8.066303104804777e-05,3.272723883749286e-05,0.0003316970057642349,0.00020429415462623789,0.0008387673396917667,8.332626309738231e-08,0.0036626164594895814,-0.927649798614723,0.0009147511316393124,-0.9291125132641932,-0.9261554199072928,-0.1952206822246239,1.777258979083776,-2.62603759765625,3.19671630859375,33.32222222222222,0.01133115447464962,33.31,33.34,0.13605442176870747,0.0019814241486066516,0,1,0
0,0.017697485551656934,0.0017652391367783868,0.015137177538761842,0.019953552210186066,0.01769747717336874,0.0017652383010844032,0.01513717037256666,0.01995354276383787,1.2176805778995113e-05,1.2145778596224888e-06,1.0415178494914085e-05,1.372909892511402e-05,1.2176805778995113e-05,1.2145778596224888e-06,1.0415178494914085e-05,1.372909892511402e-05,-0.93376271186441,44.59150107984551,-109.51,126.85,0.2930956205201257,0.0010145262967739582,0.29103900444349345,0.2947444476657074,0.0057239400246141435,0.002112568398044329,0.0009264016994628367,0.008633023352584646,0.008563803239620632,0.017120137997760913,2.686524776529531e-07,0.049545362466670975,-0.9303159896461081,0.000577388127574893,-0.9311763708212152,-0.9292634267798368,0.018378700275279155,2.0650539454462247,-2.789306640625,3.619384765625,33.32157894736843,0.011361596392063638,33.31,33.34,0.05423728813559322,-0.0007543859649123425,0,1,0
0,0.01747562971996485,0.0006727264088572663,0.015825231063251018,0.018577445161207715,0.01747562144670707,0.0006727260903772384,0.01582522357131969,0.018577436366331808,1.2024157236603812e-05,4.628713383686777e-07,1.088859569922836e-05,1.2782264516485466e-05,1.2024157236603812e-05,4.628713383686777e-07,1.088859569922836e-05,1.2782264516485466e-05,-3.687355932203395,32.40221048839615,-112.88,59.55,0.29263354078096937,0.0010189697313578716,0.29143724830848855,0.29420580018844483,0.005153060515940653,0.0021902588403071577,0.0018787056017169777,0.008212414624380788,3.5894650149993307e-07,6.890000070198842e-07,8.285177896527607e-08,3.033131668189748e-06,-0.9319374173655015,0.0004299858546690309,-0.9326824475948446,-0.931255687236229,-0.07205576102185464,2.3138097582141897,-3.17535400390625,4.04205322265625,33.30222222222222,0.009749960430437216,33.29,33.31,0.16271186440677965,-0.0002683178534572143,0,1,0
0,0.018717864247838147,0.0003204099773122978,0.01788939163671854,0.01926549868569689,0.01871785538648551,0.0003204098256248103,0.01788938316757878,0.01926548956508484,1.2878880272468009e-05,2.2045900543305125e-07,1.230884731217119e-05,1.3255681720799745e-05,1.2878880272468009e-05,2.2045900543305125e-07,1.230884731217119e-05,1.3255681720799745e-05,3.87176271186441,19.241287148476708,-39.58,38.7,0.29074268577761375,0.001119384340803982,0.2878388584100856,0.2926389497940905,0.002103381114883296,0.0006631597713527738,0.0011708743498819616,0.003131021430301717,0.001405630368760879,0.0059613808077594865,1.2364454939073344e-07,0.026697627092504696,-0.9339915642981783,0.000802266414887053,-0.9354085963731227,-0.9327868978731217,-0.12757227971003607,2.013066466569952,-3.07769775390625,3.41339111328125,33.302631578947356,0.016170833153407595,33.29,33.33,0.13559322033898305,0.0011929824561404624,0,1,0
0,0.019485488588084597,0.00043209143130138475,0.018577445161207715,0.020641605734675238,0.019485479363325616,0.00043209122674201216,0.018577436366331808,0.020641595962590898,1.3407046405172354e-05,2.973017507129621e-07,1.2782264516485466e-05,1.4202516129428297e-05,1.3407046405172354e-05,2.973017507129621e-07,1.2782264516485466e-05,1.4202516129428297e-05,-0.6126530612244895,16.93001976229628,-35.73,25.06,0.2892016858569387,0.0010951534312212334,0.2868939559860726,0.29074653988626137,0.0004442413667030259,0.0002740790737877633,0.00012640202580089862,0.0010388588831952172,1.7319069906077083e-07,1.8934925241323892e-07,6.464513190636983e-08,8.148019896296772e-07,-0.9372731379815745,0.0010581732167806602,-0.9390488178250479,-0.9355903044552898,0.08404828774426179,1.977468516640689,-2.6519775390625,3.62091064453125,33.31222222222223,0.017497795275581325,33.29,33.33,0.16326530612244897,0.001155830753353802,0,1,0
0,0.02041380422994571,0.00032379947908551447,0.019953552210186066,0.020641605734675238,0.02041379456570643,0.0003237993257933793,0.01995354276383787,0.020641595962590898,1.4045776649621553e-05,2.2279116186620946e-07,1.372909892511402e-05,1.4202516129428297e-05,1.4045776649621553e-05,2.2279116186620946e-07,1.372909892511402e-05,1.4202516129428297e-05,-1.5287457627118644,16.35255375649603,-38.22,22.27,0.28863065816643185,0.0005370701271753591,0.28777671796640797,0.2897834524497725,0.0012230241349514353,0.0011438124280595758,0.00011163384643499464,0.0035040521768619284,0.00231740061833254,0.005858757513796312,4.274662436243304e-07,0.024124966849130347,-0.9412602166155007,0.0012130944891416138,-0.943242511503851,-0.9392673913566869,0.028621588392234026,2.063734493433977,-2.899169921875,3.67279052734375,33.309999999999995,7.105427357601002e-15,33.31,33.31,0.16271186440677965,0.0,0,1,0
0,0.02031864183542523,0.00034338137535831016,0.019953552210186066,0.020641605734675238,0.020318632216237444,0.00034338121279577614,0.01995354276383787,0.020641595962590898,1.3980299890668547e-05,2.362645418558293e-07,1.372909892511402e-05,1.4202516129428297e-05,1.3980299890668547e-05,2.362645418558293e-07,1.372909892511402e-05,1.4202516129428297e-05,1.4869152542372888,16.931663777696325,-38.01,24.85,0.2877506178483699,0.0008832169935008844,0.2864766980298836,0.28974214507465185,0.0017159867511685354,0.000915445293907363,0.0005413956296182439,0.0034009740992208643,4.0050793914669924e-07,4.1621854441794667e-07,6.927043911392206e-08,1.7035678351873251e-06,-0.9451572209284647,0.0010012001815875365,-0.9467254388171991,-0.943456824309458,0.05234100786825163,1.938232434772632,-2.63824462890625,3.62701416015625,33.30555555555556,0.00831479419283228,33.29,33.31,0.16271186440677965,-0.0009907120743035606,0,1,0
0,0.019967594118849148,0.00021934162516930566,0.01926549868569689,0.020641605734675238,0.019967584665853234,0.00021934152132928097,0.01926548956508484,0.020641595962590898,1.3738760500712294e-05,1.5091863536996771e-07,1.3255681720799745e-05,1.4202516129428297e-05,1.3738760500712294e-05,1.5091863536996771e-07,1.3255681720799745e-05,1.4202516129428297e-05,-0.8979591836734702,16.88614528652971,-38.71,24.38,0.2862326185149621,0.0017801915478274047,0.28282862993742447,0.2886566352435528,0.0011680988504913171,0.000954258441393183,0.0001997687313641209,0.0025126299522168632,0.0014714871689274658,0.0049021104641714525,5.260893701144326e-08,0.021014893460613845,-0.9480051712614911,0.0006163113316653509,-0.9489039691260883,-0.9468872688916685,0.02849900692923193,2.0736352153686872,-2.62908935546875,3.66668701171875,33.309999999999995,7.105427357601002e-15,33.31,33.31,0.16326530612244897,0.0,0,1,0
0,0.019535141283131875,0.0003358889833949104,0.01926549868569689,0.019953552210186066,0.019535132034866398,0.0003358888243793992,0.01926548956508484,0.01995354276383787,1.344121008465267e-05,2.311093800396398e-07,1.3255681720799745e-05,1.372909892511402e-05,1.344121008465267e-05,2.311093800396398e-07,1.3255681720799745e-05,1.372909892511402e-05,-0.32135593220339015,17.16284142032067,-43.67,31.28,0.28644261908528373,0.00034601497095369923,0.2858634956740944,0.28703410269832086,0.0015881159263103266,0.0003158438199427499,0.0009592296678945719,0.0020514614527613008,0.0008135934201776114,0.0023607909525105797,8.289396811675398e-08,0.008092864703371283,-0.9496987822549797,0.0004495178348621062,-0.9504934898222035,-0.9489853454864168,0.15841737278637755,1.8157800422460448,-2.39410400390625,3.42864990234375,33.314210526315776,0.00815364914990873,33.31,33.33,0.16271186440677965,-0.00035087719298238635,0,1,0
0,0.019167205325055555,0.0003210247715661048,0.018577445161207715,0.019953552210186066,0.019167196250977278,0.00032102461958756305,0.018577436366331808,0.01995354276383787,1.3188050691612024e-05,2.208820163856974e-07,1.2782264516485466e-05,1.372909892511402e-05,1.3188050691612024e-05,2.208820163856974e-07,1.2782264516485466e-05,1.372909892511402e-05,0.980542372881356,17.377598038973527,-39.08,25.7,0.2849468761032934,0.0006031141874347472,0.2839964315898597,0.2860383398928921,0.00036762932474310883,0.00022531165892867143,0.00010521159996890853,0.0008538095553894522,2.098563848288181e-07,8.286171168709738e-08,8.260934934029018e-08,3.405342187227933e-07,-0.9519413697218972,0.0009367576123407043,-0.9536739336311156,-0.9506051435388958,0.0011992092055635277,1.848825862489754,-2.66571044921875,3.14178466796875,33.29666666666667,0.009428090415822104,33.29,33.31,0.16271186440677965,-0.0008255933952529671,0,1,0
0,0.01880059765563661,0.0003220928818221864,0.018577445161207715,0.01926549868569689,0.01880058875511661,0.0003220927293379832,0.018577436366331808,0.01926548956508484,1.2935805231398247e-05,2.2161693271609392e-07,1.2782264516485466e-05,1.3255681720799745e-05,1.2935805231398247e-05,2.2161693271609392e-07,1.2782264516485466e-05,1.3255681720799745e-05,-0.7909152542372887,17.853586911402083,-42.13,27.64,0.2839752921977717,0.0009628608250061127,0.28252710785055646,0.2857973352711194,0.0012068995195819406,0.001138270051539733,3.881052557218082e-05,0.0026296480699250654,0.0023398815385210683,0.005434749736292219,1.0996978804748286e-07,0.015911842595837722,-0.9566707719428751,0.0017427328456554433,-0.959626789176524,-0.9539360006858542,0.15702922054319168,1.7627617647361733,-2.43377685546875,3.27301025390625,33.30263157894736,0.00964752777885591,33.29,33.31,0.13559322033898305,0.00021052631578950657,0,1,0
0,0.020346725652751304,0.007907577155941342,0.012384963440805145,0.041283211469350475,0.020346716020268163,0.007907573412360931,0.01238495757755454,0.041283191925181796,1.3999623041865036e-05,5.440831180749351e-06,8.521509677656977e-06,2.8405032258856593e-05,1.3999623041865036e-05,5.440831180749351e-06,8.521509677656977e-06,2.8405032258856593e-05,-9.140646258503399,47.34974692578716,-175.09,79.31,0.2836907438130992,0.001110788701776459,0.2815175880117118,0.28550082100848084,0.004543266598742755,0.0014377589052414462,0.0024527471820522655,0.006676156807493124,0.002771060849566197,0.011419385456119006,5.540657171260177e-08,0.049854390845913726,-0.9628265931881932,0.0017076485913471106,-0.9655379945765681,-0.9599712812029478,0.5034127247244785,2.8280466457872837,-3.52630615234375,5.364990234375,33.290000000000006,0.013333333333333051,33.27,33.31,0.027210884353741496,0.0006604747162020217,0,1,0
0,0.033719303336190595,0.006463736617646254,0.020641605734675238,0.04541153261628553,0.03371928737290358,0.006463733557604308,0.020641595962590898,0.045411511117699976,2.320066353659898e-05,4.44739255019695e-06,1.4202516129428297e-05,3.124553548474225e-05,2.320066353659898e-05,4.44739255019695e-06,1.4202516129428297e-05,3.124553548474225e-05,10.1837627118644,64.20142411756423,-129.38,133.55,0.28009962047415704,0.0009691956002084037,0.27788930897200953,0.28168762328063646,0.0009298978932099006,0.0005739786074152913,0.000264542956886155,0.00217569082185104,3.6260922380367643e-07,4.2375900808988156e-07,5.9365355332963166e-08,1.7729400400567918e-06,-0.9679910948265206,0.0012511917970234503,-0.9699260883307386,-0.9658265977653964,0.0663688676238171,2.829559177374883,-4.10614013671875,5.32073974609375,33.29333333333333,0.0074535599250004645,33.29,33.31,0.10847457627118644,0.000928792569659588,0,1,0
0,0.030213917943615824,0.008270163350519883,0.014449124014272667,0.041283211469350475,0.03021390363983744,0.008270159435285055,0.01444911717381363,0.041283191925181796,2.0788773046205962e-05,5.690309653645435e-06,9.941761290599808e-06,2.8405032258856593e-05,2.0788773046205962e-05,5.690309653645435e-06,9.941761290599808e-06,2.8405032258856593e-05,-2.3933559322033915,47.097492926101275,-141.21,94.7,0.2804147208646867,0.0012187922673299995,0.27853800213538166,0.2827367911079236,0.003141943778312302,0.0025867457581535214,0.00011153638001102973,0.006404928722452861,0.0036440830154650023,0.015456529484198943,8.888585295574458e-08,0.06922058362981197,-0.9716519126177467,0.0008704911703086336,-0.9729847527417927,-0.9701235651072657,0.7147999614403207,2.7622600488362656,-3.09600830078125,5.5328369140625,33.31421052631579,0.008153649149908728,33.31,33.33,0.08135593220338982,0.0007719298245612499,0,1,0
0,0.02039353201496146,0.005988610193030536,0.009632749342848445,0.04197126499383966,0.020393522360319407,0.005988607357921457,0.00963274478254242,0.04197124512393483,1.4031828293859202e-05,4.120480448693787e-06,6.627840860399872e-06,2.8878449463170872e-05,1.4031828293859202e-05,4.120480448693787e-06,6.627840860399872e-06,2.8878449463170872e-05,0.7109491525423761,55.67036081862036,-139.77,211.71,0.2825066318443826,0.0030483796466328167,0.27700971302666866,0.28745230746633704,0.012984949996814382,0.005833873959741694,0.002915458177792122,0.020008350976944016,0.01426165206216574,0.0361479006598008,1.0170695746714031e-07,0.13861069812682736,-0.9740784514432447,0.0005837522460352235,-0.9750473868254567,-0.9731093934331777,-0.009398618692793981,2.482598926354585,-3.47442626953125,4.28314208984375,33.321111111111115,0.01286204100310001,33.31,33.34,0.13559322033898305,0.0009081527347783517,0,1,0
0,0.024208250535088523,0.0005788491927951351,0.022705766308142764,0.02476992688161029,0.024208239074494365,0.0005788489187581596,0.022705755558849988,0.02476991515510908,1.665655633138393e-05,3.9827885014628386e-07,1.5622767742371126e-05,1.7043019355313955e-05,1.665655633138393e-05,3.9827885014628386e-07,1.5622767742371126e-05,1.7043019355313955e-05,4.306054421768708,45.03698511190361,-130.01,101.21,0.27992577649219585,0.001280977596662589,0.2770993736230729,0.2830395616148306,0.006764984525768794,0.003596388843304993,0.0022353576852517697,0.014525107940778697,0.000534354996073282,0.0022659119236726607,6.063826524238536e-08,0.010147804968435564,-0.9766004710678033,0.0009714120986478645,-0.9783802951535989,-0.9751719788263693,-0.3597771696342054,1.801380469472699,-3.07159423828125,3.11126708984375,33.36368421052632,0.012230473724863095,33.34,33.37,0.10884353741496598,-0.0009473684210524431,0,1,0
0,0.0237285485742753,0.0007650412254708487,0.01926549868569689,0.025457980406099465,0.023728537340780165,0.0007650408632874265,0.01926548956508484,0.02545796835386211,1.6326496019054534e-05,5.263888131616928e-07,1.3255681720799745e-05,1.7516436559628233e-05,1.6326496019054534e-05,5.263888131616928e-07,1.3255681720799745e-05,1.7516436559628233e-05,-9.80979661016949,24.468487252652313,-102.84,54.94,0.27710390546580493,0.0014997229144139822,0.27408770718534486,0.2798639248797471,0.0030651589343965776,0.0024297951159428107,0.0006493700521641088,0.006819442059760813,0.003942950180513858,0.016254949665190605,1.438395953803906e-07,0.07096382456676503,-0.9813497133633327,0.0017801467164156018,-0.9844152415404621,-0.9786357754886857,0.22840508754823727,1.695996828700173,-2.21405029296875,3.4912109375,33.37222222222222,0.01930905244109103,33.34,33.39,0.08135593220338982,0.001486068111454813,0,1,0
0,0.023946134906711627,0.0026830540207875113,0.016513284587740193,0.026146033930588636,0.023946123570207534,0.0026830527505844796,0.01651327677007272,0.02614602155261514,1.6476206920216597e-05,1.846083027462766e-06,1.1362012903542639e-05,1.7989853763942512e-05,1.6476206920216597e-05,1.846083027462766e-06,1.1362012903542639e-05,1.7989853763942512e-05,7.720033898305085,25.69234604086588,-61.94,54.07,0.2758645179104564,0.0012217266941790556,0.273651002116896,0.27813268557865695,0.003926262831177571,0.0014374328167118889,0.0015251160207958232,0.0057344443086802,0.0012995408197174097,0.005506800647915613,9.517241831777379e-08,0.024662908452322718,-0.9882022067067221,0.002004524274010037,-0.9913308540737675,-0.9848053187255293,0.08478756282228986,2.212299128153488,-3.31573486328125,3.34625244140625,33.3678947368421,0.016408902387493377,33.34,33.39,0.16271186440677965,-0.0010877192982452232,0,1,0
0,0.025537013581209626,0.0002335173393210841,0.025457980406099465,0.026834087455077812,0.02553700149155677,0.00023351722877003667,0.02545796835386211,0.02683407475136817,1.7570815562826514e-05,1.6067227621916805e-07,1.7516436559628233e-05,1.8463270968256787e-05,1.7570815562826514e-05,1.6067227621916805e-07,1.7516436559628233e-05,1.8463270968256787e-05,0.5026101694915257,15.013154016594859,-34.32,24.15,0.272903472139557,0.0008402107268271633,0.2715966588598636,0.27439493256551745,0.0006232848823352175,0.00032303614742282304,0.00023669879427241336,0.0013496609775421355,0.00040048467567203145,0.0016492359848956026,9.956734303012693e-08,0.007200457996856265,-0.9933128545492033,0.0008421766530112568,-0.9943223533213994,-0.991620998481015,0.08380687499394004,2.1011186541087676,-2.90374755859375,3.92608642578125,33.36333333333334,0.012472191289243987,33.34,33.37,0.13559322033898305,0.0017337461300306147,0,1,0
0,0.02230791222935649,0.007647503580447179,0.007568588769380921,0.053668174910155624,0.02230790166841456,0.0076474999599899784,0.00756858518628333,0.05366814950273634,1.5349023100420694e-05,5.261886809934778e-06,5.2075892474570424e-06,3.6926541936513574e-05,1.5349023100420694e-05,5.261886809934778e-06,5.2075892474570424e-06,3.6926541936513574e-05,-1.9672108843537444,76.31704766518212,-149.65,268.62,0.2773717632360595,0.0049719634361936075,0.2710744175510262,0.2894255621796538,0.016031026051634537,0.010911323911850228,0.0007388776430578648,0.02871827020806756,0.020119327302900704,0.06456799499162617,4.429791766735747e-08,0.2824809031213403,-0.9940234507599377,0.00035402274917794614,-0.994376053370578,-0.9932752253552645,-0.4396812495759344,2.537216533322277,-3.521728515625,4.19769287109375,33.37888888888889,0.009938079900000618,33.37,33.39,0.10884353741496598,0.0009907120743035606,0,1,0
0,0.023094259114486967,0.008338949820780251,0.011696909916315968,0.0460995861407747,0.02309424818127518,0.008338945872980737,0.01169690437880151,0.046099564316453005,1.5890071333922732e-05,5.737638382132764e-06,8.048092473342702e-06,3.1718952689056526e-05,1.5890071333922732e-05,5.737638382132764e-06,8.048092473342702e-06,3.1718952689056526e-05,-4.0176610169491545,67.00597606756016,-132.83,232.83,0.27729569132878745,0.0025442691281325753,0.2714654463665049,0.28204546097700317,0.012937689661778638,0.002516930766365231,0.008891412230676179,0.018393262592297486,0.005988321141729708,0.0215871156915979,8.256795389072202e-08,0.09603848278072644,-0.9916511406211054,0.0009561827546782763,-0.9931388298691306,-0.9900262869826575,-0.20798761258941725,2.584018488915348,-3.302001953125,4.60357666015625,33.405789473684194,0.008153649149908732,33.39,33.41,0.16271186440677965,0.001052631578947159,0,1,0
0,0.01751747081267034,0.0022853467874944947,0.012384963440805145,0.019953552210186066,0.01751746251960418,0.0022853457055727736,0.01238495757755454,0.01995354276383787,1.2052946120649991e-05,1.5724394229758478e-06,8.521509677656977e-06,1.372909892511402e-05,1.2052946120649991e-05,1.5724394229758478e-06,8.521509677656977e-06,1.372909892511402e-05,-0.26366101694915467,46.08039905540564,-131.81,76.69,0.2775798153761941,0.0008568634883934729,0.2764150510262234,0.2794565427822351,0.009892941361815363,0.0019253273036127982,0.005796414778468442,0.01234462850526705,0.005503638521691096,0.01637428471274072,2.562481417889284e-07,0.06483599908056908,-0.9883300154415589,0.0008851091382261025,-0.9898381061777156,-0.9869611671079148,-0.028091227087292506,1.9692388422340839,-2.850341796875,3.58123779296875,33.45055555555555,0.01508207995610956,33.41,33.5,0.05423728813559322,0.0015789473684211124,0,1,0
0,0.02083819245595783,0.0007944957751613914,0.01926549868569689,0.023393819832631935,0.020838182590806,0.0007944953990336888,0.01926548956508484,0.02339380875760302,1.4337778187803805e-05,5.466551006996946e-07,1.3255681720799745e-05,1.6096184946685404e-05,1.4337778187803805e-05,5.466551006996946e-07,1.3255681720799745e-05,1.6096184946685404e-05,5.852237288135595,33.63808910126097,-76.29,75.79,0.2755606982709923,0.001459612416503277,0.27265707220222973,0.2788257185336103,0.002151264156201542,0.0013582293683717204,0.000706496492561719,0.005159769425984081,0.00032663470904486445,0.0013838140693093791,7.747716389283621e-08,0.006197659289673795,-0.9860678207344333,0.00035496730670234574,-0.9868282737274997,-0.9857204658971603,0.19502616106132717,2.0212161917739753,-2.67181396484375,3.58123779296875,33.47894736842107,0.01209381609797571,33.47,33.5,0.10847457627118644,-0.00021052631578935698,0,1,0
0,0.020374809470077398,0.0003886337637910274,0.01926549868569689,0.020641605734675238,0.020374799824298906,0.00038863357980524894,0.01926548956508484,0.020641595962590898,1.4018946193061548e-05,2.674005777278427e-07,1.3255681720799745e-05,1.4202516129428297e-05,1.4018946193061548e-05,2.674005777278427e-07,1.3255681720799745e-05,1.4202516129428297e-05,-1.29748299319728,20.54531829563024,-48.72,26.75,0.27527664521285067,0.0012942316656396073,0.27223883950848815,0.2768489061153575,0.0005788035356436162,0.00026421611380843274,0.00020173477907555067,0.0009632623830406512,1.5991193788370015e-07,1.1869838281614269e-07,7.396711816133605e-08,5.927137271752314e-07,-0.9866138980178015,0.0006781050245786507,-0.9879615671954538,-0.9857779175450276,0.09671204143363252,2.2507639374704875,-2.8778076171875,3.8665771484375,33.49111111111111,0.0031426968052729195,33.49,33.5,0.16326530612244897,0.00033023735810106946,0,1,0
0,0.019869870024775253,0.0004517919595833065,0.018577445161207715,0.022017712783653588,0.019869860618043574,0.00045179174569737256,0.018577436366331808,0.02201770236009696,1.3671521157021762e-05,3.1085675579729237e-07,1.2782264516485466e-05,1.514935053805685e-05,1.3671521157021762e-05,3.1085675579729237e-07,1.2782264516485466e-05,1.514935053805685e-05,0.5826779661016964,17.99974069346242,-50.79,25.88,0.27357598027244223,0.0012063502512081818,0.2714369752252574,0.27548283565553777,0.00047215458309791947,0.00025293139815875734,0.00015761733162211473,0.0012872228852178866,0.0011061434120389546,0.003605202578001033,8.851176473180511e-08,0.015521272120590903,-0.9910425555946084,0.0019407554132425176,-0.9945533763849675,-0.9881942589385032,0.7290435488111624,2.6450297450379785,-3.460693359375,4.24957275390625,33.49368421052632,0.00482376388942624,33.49,33.5,0.16271186440677965,3.508771929823863e-05,0,1,0
0,0.01663966176570758,0.005985422933168892,0.0027522140979566985,0.02476992688161029,0.016639653888211026,0.005985420099568713,0.00275221279501212,0.02476991515510908,1.1448967083926894e-05,4.118287445388931e-06,1.8936688172571063e-06,1.7043019355313955e-05,1.1448967083926894e-05,4.118287445388931e-06,1.8936688172571063e-06,1.7043019355313955e-05,4.525355932203391,31.193288322950767,-85.93,103.52,0.2738121546730468,0.0012650797116053312,0.2704421244658228,0.2754267950886216,0.00798986569513107,0.004904452410333688,0.0015000967267815486,0.013953452974114534,0.010503146322394592,0.022700587570268334,2.4232365967297165e-07,0.07971214692511308,-0.999398534597296,0.002703183897500527,-1.0038119541177173,-0.9950297018554219,-0.062338994446652966,2.516930392559183,-3.33709716796875,4.46624755859375,33.49555555555556,0.004969039949998543,33.49,33.5,0.16271186440677965,0.0,0,1,0
0,0.020407573923624498,0.004983965537002541,0.013073016965294318,0.035090729748947905,0.020407564262334782,0.004983963177509187,0.01307301077630757,0.03509071313640453,1.4041489869457468e-05,3.429231806752509e-06,8.994926881971256e-06,2.4144277420028106e-05,1.4041489869457468e-05,3.429231806752509e-06,8.994926881971256e-06,2.4144277420028106e-05,-10.273503401360541,52.60589128862278,-113.55,144.83,0.2720174510828297,0.002089544829811596,0.26722791848709077,0.27434063399755726,0.010941970748435396,0.0042527142373623575,0.004898551076891507,0.018448423354722836,0.011608424697083846,0.03529911916007835,7.630033216354803e-08,0.14342521976953748,-1.0077568185075383,0.0018819012254075195,-1.0103524698746138,-1.004305983162007,0.15022665927782838,1.9483723870654073,-2.5909423828125,3.70025634765625,33.514999999999986,0.015000000000000572,33.5,33.53,0.05442176870748299,0.002507739938080591,0,1,0
0,0.031520289838085185,0.009426432153263019,0.010320802867337619,0.042659318518328826,0.031520274915848266,0.009426427690631038,0.010320797981295449,0.04265929832268786,2.168762598142431e-05,6.485883725352824e-06,7.101258064714148e-06,2.935186666748515e-05,2.168762598142431e-05,6.485883725352824e-06,7.101258064714148e-06,2.935186666748515e-05,3.7807796610169526,43.08152060174095,-158.47,99.67,0.27303058586760875,0.003474001180288927,0.2679226450974355,0.27884720803409047,0.017928886658927792,0.00642238367223862,0.007221328705460129,0.027004990519442593,0.008048801484832543,0.03410894058750498,3.265156162113314e-08,0.1527607003957404,-1.010356249287563,0.0005044165868887052,-1.0108416870988421,-1.0092043726091682,0.138847407868719,2.7863786571760336,-4.29840087890625,6.01348876953125,33.51736842105262,0.014811839241548235,33.5,33.53,0.13559322033898305,-0.0006315789473684449,0,1,0
0,0.029572259644371476,0.004676581033390185,0.023393819832631935,0.044035425567307176,0.0295722456443649,0.004676578819417851,0.02339380875760302,0.04403540472019392,2.0347278209915666e-05,3.217735015921119e-06,1.6096184946685404e-05,3.02987010761137e-05,2.0347278209915666e-05,3.217735015921119e-06,1.6096184946685404e-05,3.02987010761137e-05,2.4868813559322014,23.8410723745593,-62.82,50.6,0.2734758599748005,0.00178013739293241,0.26992416562564664,0.2759355876909377,0.014842593456006713,0.0047132694910168894,0.006594017169614855,0.0215790115784481,0.013178630269991365,0.028494778451995533,2.0826998192724488e-07,0.1005894045055559,-1.007113445014049,0.0011002603192722105,-1.008988306733147,-1.0054820147421908,-1.144784613126115,4.27601881600263,-6.90765380859375,7.7484130859375,33.51666666666666,0.014907119849999166,33.5,33.53,0.18983050847457628,-0.0004953560371517216,0,1,0
0,0.02529526504557831,0.0007035075570690084,0.023393819832631935,0.028210194504056162,0.025295253070373266,0.0007035072240166685,0.02339380875760302,0.02821018114887423,1.7404479788337703e-05,4.840503958305337e-07,1.6096184946685404e-05,1.941010537688534e-05,1.7404479788337703e-05,4.840503958305337e-07,1.6096184946685404e-05,1.941010537688534e-05,-1.7046779661016946,14.111083796549552,-34.62,20.25,0.2715512579337993,0.00097693394842681,0.27025747697600033,0.27387773477280364,0.00622440074272074,0.002710583097059527,0.0021522834512751957,0.009802132852746405,0.001564001837506344,0.006630287900664298,1.0484730234711082e-07,0.029693929312551992,-1.0055316026607815,0.0005029304844321661,-1.0067176204475037,-1.005065708757951,0.8918322049654447,1.523899328516876,-1.61590576171875,3.76739501953125,33.547894736842096,0.01435598073366877,33.53,33.57,0.16271186440677965,0.0011578947368418,0,1,0
0,0.025401812771447214,0.0002601861223997924,0.02476992688161029,0.026146033930588636,0.02540180074580069,0.0002601859992232942,0.02476991515510908,0.02614602155261514,1.7477790257235253e-05,1.7902180903634083e-07,1.7043019355313955e-05,1.7989853763942512e-05,1.7477790257235253e-05,1.7902180903634083e-07,1.7043019355313955e-05,1.7989853763942512e-05,0.6507142857142864,14.205072983599472,-33.4,26.16,0.26835648522911393,0.0012787578215531004,0.2662479595129082,0.27040762806079643,0.0008076126461636043,0.0005017785613679445,0.00022842576808752415,0.0019028503386285642,1.1845384294731171e-07,2.314935326282509e-08,9.235970185091785e-08,1.6736817444462648e-07,-1.0096392589491552,0.0017594103398803382,-1.0126743895773722,-1.0069632443175836,0.22228326158547224,2.0217408152679206,-3.42864990234375,3.81622314453125,33.55111111111111,0.01242259987499876,33.53,33.57,0.16326530612244897,-0.000928792569659258,0,1,0
0,0.0257575411242444,0.000538781690013266,0.02476992688161029,0.027522140979566984,0.025757528930189958,0.000538781434944926,0.02476991515510908,0.027522127950121197,1.772255017239095e-05,3.7071028974260496e-07,1.7043019355313955e-05,1.8936688172571062e-05,1.772255017239095e-05,3.7071028974260496e-07,1.7043019355313955e-05,1.8936688172571062e-05,0.7665423728813568,14.830359570622933,-32.12,21.16,0.26611513397598574,0.0007760545898117499,0.2644008626641817,0.26721585315835217,0.00012142032303063538,0.0001358794590196901,3.106053807878309e-05,0.000643385493020921,0.0025885565815454573,0.010046887564295257,1.1166796579607785e-07,0.0439374022874693,-1.0163314196720636,0.0019724950205564805,-1.0195257944650788,-1.013062603622591,0.13359985919683717,2.042584711771667,-3.05328369140625,3.6468505859375,33.55333333333333,0.010000000000000642,33.53,33.57,0.16271186440677965,0.0006811145510835732,0,1,0
0,0.026457517620729055,0.0003694427819498033,0.025457980406099465,0.027522140979566984,0.02645750509529385,0.00036944260704935815,0.02545796835386211,0.027522127950121197,1.8204171011841546e-05,2.541961675359688e-07,1.7516436559628233e-05,1.8936688172571062e-05,1.8204171011841546e-05,2.541961675359688e-07,1.7516436559628233e-05,1.8936688172571062e-05,-1.2664406779661037,13.865591769839357,-31.35,19.97,0.2655118578315216,0.0007933893969150669,0.2643594221954148,0.2667456637463646,0.0032490249574715735,0.00066734759862935,0.0020292328971688854,0.004280827046818279,0.0007430447218646106,0.002787642650179835,4.0708310430903616e-07,0.012490965285634939,-1.0233562109732433,0.0021567396305103696,-1.0270097803327607,-1.0198959107302963,-0.18023545333824442,2.6449940591514274,-3.83148193359375,4.486083984375,33.562631578947375,0.00964752777885591,33.55,33.57,0.13559322033898305,0.0014736842105265461,0,1,0
0,0.018708502975396127,0.005243336356740263,0.012384963440805145,0.029586301553034506,0.018708494118475257,0.00524333387445639,0.01238495757755454,0.029586287546380288,1.2872439222069151e-05,3.607692644449838e-06,8.521509677656977e-06,2.035693978551389e-05,1.2872439222069151e-05,3.607692644449838e-06,8.521509677656977e-06,2.035693978551389e-05,0.7137288135593223,28.668036396685984,-111.34,56.74,0.26224401078802867,0.0015081239703494005,0.25940734552178146,0.2648908365096992,0.0010125042247528665,0.00048290557232177526,0.0003468739476797951,0.0018883445137398553,0.00017608255981828254,0.0006197336330100285,7.573267579025211e-08,0.002692128342699128,-1.031666041500143,0.002701780710780361,-1.0362966336235406,-1.027451898817877,-0.07201741283960014,3.8517169073096404,-4.400634765625,6.70318603515625,33.55444444444444,0.008314794192832283,33.55,33.57,0.16271186440677965,-0.0011558307533541539,0,1,0
0,0.013264923050355952,0.00041533888655312086,0.012384963440805145,0.014449124014272667,0.013264916770517566,0.00041533868992468695,0.01238495757755454,0.01444911717381363,9.126968415147366e-06,2.857751141685734e-07,8.521509677656977e-06,9.941761290599808e-06,9.126968415147366e-06,2.857751141685734e-07,8.521509677656977e-06,9.941761290599808e-06,-1.2912244897959184,20.564890607817716,-61.74,42.63,0.25850837956927597,0.0014512805489078182,0.25580177379408015,0.26077788191377155,0.00012502810414826514,8.163148988965891e-05,3.2576160602901185e-05,0.0003066320138905501,1.29540634541686e-07,4.85066353887379e-08,7.922115303603955e-08,2.414372829843449e-07,-1.0423745582926567,0.003333609661904576,-1.0477897571829593,-1.0368922209101492,-0.16883601698764536,1.4983403161967193,-2.960205078125,2.63214111328125,33.541578947368414,0.009874559494363151,33.53,33.55,0.16326530612244897,-0.0007017543859647727,0,1,0
0,0.013077665975594946,0.00023314682367426266,0.012384963440805145,0.013761070489783492,0.013077659784407216,0.00023314671329862353,0.01238495757755454,0.013761063975060599,8.998125646865299e-06,1.604173418638734e-07,8.521509677656977e-06,9.468344086285531e-06,8.998125646865299e-06,1.604173418638734e-07,8.521509677656977e-06,9.468344086285531e-06,0.4774237288135596,14.311109000369395,-32.38,20.73,0.2563917083630281,0.0006948028803594889,0.25540983149551216,0.25756903908974027,0.0019667156149889313,0.002547034725546324,9.849852557351988e-06,0.00606926857357221,0.0036809670362746394,0.010687299456008745,2.004646195291615e-07,0.0404072822911654,-1.0526087855967803,0.0024160597665160333,-1.056216664399357,-1.048360332090119,0.24283915397509115,2.1485733774624896,-3.02581787109375,4.09698486328125,33.55,0.01333333333333305,33.53,33.57,0.16271186440677965,0.0006604747162021389,0,1,0
0,0.01259091143452979,0.00035362818441730384,0.011696909916315968,0.013761070489783492,0.012590905473779928,0.0003536280170037568,0.01169690437880151,0.013761063975060599,8.663212786431314e-06,2.433148882681262e-07,8.048092473342702e-06,9.468344086285531e-06,8.663212786431314e-06,2.433148882681262e-07,8.048092473342702e-06,9.468344086285531e-06,-0.27613559322033926,13.798258130620754,-32.71,20.84,0.2553303659294591,0.0013857891559534115,0.25277371644535307,0.2580472004140589,0.00419212040606894,0.0011713266069799098,0.002877437533720506,0.0073961860865177885,0.004620619764266883,0.015117850757493747,1.6277729117386563e-07,0.06504919513459267,-1.0587333546780466,0.0011798322085025327,-1.0604435442468556,-1.0565414827369066,0.5868078757160651,2.179509093793448,-2.79693603515625,3.70025634765625,33.550000000000004,0.012977713690460729,33.53,33.57,0.16271186440677965,0.0011228070175439105,0,1,0
0,0.012226897090584655,0.00032088276026707513,0.011008856391826794,0.013073016965294318,0.012226891302165335,0.00032088260835576267,0.01100885118004848,0.01307301077630757,8.41275167126043e-06,2.207843051033977e-07,7.574675269028425e-06,8.994926881971256e-06,8.41275167126043e-06,2.207843051033977e-07,7.574675269028425e-06,8.994926881971256e-06,1.1020338983050846,13.780039824259323,-30.32,19.95,0.25429880366821545,0.001457773956520396,0.2508173982894187,0.2567986057523392,0.004172555574755781,0.0020816552051774405,0.0013748899303829992,0.0075950832439234395,2.8493018367399997e-07,1.927016016104415e-07,1.1349059441528864e-07,9.297112646966532e-07,-1.0617519236169009,0.0007154368356595181,-1.062971751560749,-1.0605889122888306,0.21376933808878568,2.081197164184504,-3.1646728515625,3.399658203125,33.57666666666668,0.013333333333335418,33.55,33.59,0.16271186440677965,0.0023116615067083077,0,1,0
0,0.013012168694421148,0.0004463079291264728,0.011696909916315968,0.013761070489783492,0.013012162534240939,0.00044630771783677115,0.01169690437880151,0.013761063975060599,8.953060054378858e-06,3.070834528857549e-07,8.048092473342702e-06,9.468344086285531e-06,8.953060054378858e-06,3.070834528857549e-07,8.048092473342702e-06,9.468344086285531e-06,-0.030170068027211033,11.957176522040651,-30.94,20.71,0.25248685029477635,0.0014845728435539174,0.24969886342432657,0.25523234951316226,0.0005149520523337097,0.00032030821432275366,0.00014553480674901414,0.0012148086409423072,1.092088546640979e-07,3.239747006691322e-08,7.57585318831265e-08,1.8189155625777942e-07,-1.0648142306097121,0.0010828934428165054,-1.066673808488479,-1.0631389556436641,-0.30431534457147563,1.8382956029097963,-2.82135009765625,3.21197509765625,33.601111111111116,0.021314806770278957,33.57,33.63,0.16326530612244897,0.0036326109391124684,0,1,0
0,0.013035571875526222,0.00020901019289582568,0.012384963440805145,0.013761070489783492,0.013035565704266549,0.0002090100939468753,0.01238495757755454,0.013761063975060599,8.96916268037594e-06,1.4381006371181915e-07,8.521509677656977e-06,9.468344086285531e-06,8.96916268037594e-06,1.4381006371181915e-07,8.521509677656977e-06,9.468344086285531e-06,-0.2827796610169495,13.66361747279893,-30.45,18.62,0.25088203532484227,0.0016141724095709166,0.24842257123183806,0.25421644746002886,0.000991780463316247,0.0015610053809938533,2.876343364489845e-05,0.0043215138294469225,0.0025883134730328244,0.010062336296437085,8.913573791200467e-08,0.04510608145985594,-1.0692017606894282,0.0014172974074535447,-1.0715596514929517,-1.0669141916690914,0.28020418607271635,1.6551517592699962,-2.2064208984375,3.60260009765625,33.650526315789456,0.014680342822084774,33.61,33.66,0.16271186440677965,0.0019824561403506947,0,1,0
0,0.01254302979102563,0.00028943589670308727,0.012384963440805145,0.013073016965294318,0.012543023852943737,0.0002894357596792519,0.01238495757755454,0.01307301077630757,8.630267684053489e-06,1.9914720028082288e-07,8.521509677656977e-06,8.994926881971256e-06,8.630267684053489e-06,1.9914720028082288e-07,8.521509677656977e-06,8.994926881971256e-06,-0.35433898305084643,14.482118424270054,-33.19,19.8,0.2511999165550358,0.0009848955302252692,0.24966864526639984,0.25278019709981214,0.0049735057250235165,0.0011150475182649432,0.0035253310502201592,0.006772572146078407,0.00302352054664464,0.008791298245553124,2.227602488580338e-07,0.033458499669237404,-1.0740654892941448,0.0013559056681759485,-1.0762625305657354,-1.071826232984947,0.05399187344259036,1.655025155752229,-2.53753662109375,3.08380126953125,33.68333333333332,0.015986105077710245,33.66,33.71,0.16271186440677965,0.001919504643963031,0,1,0
0,0.012403685985689195,0.00013774119138946743,0.011696909916315968,0.013073016965294318,0.012403680113575025,0.00013774112618046436,0.01169690437880151,0.01307301077630757,8.534391778454634e-06,9.477322246831325e-08,8.048092473342702e-06,8.994926881971256e-06,8.534391778454634e-06,9.477322246831325e-08,8.048092473342702e-06,8.994926881971256e-06,0.6555932203389843,13.68875766251287,-31.36,19.78,0.24936732091114797,0.0010004576514650908,0.24743275668724257,0.25120546666777477,0.003174975235039679,0.0011076691529712211,0.0013147720151923102,0.004743948821202201,0.0017359032263215034,0.007162389986447817,8.455125569128974e-08,0.03211238924378117,-1.0786269694597157,0.0012480340404331207,-1.0806044006504023,-1.0765124004144802,-0.13685770721056917,1.8015157957330394,-2.716064453125,3.2196044921875,33.72315789473685,0.012999041089712837,33.68,33.73,0.16271186440677965,0.001701754385964686,0,1,0
0,0.012094763995102235,0.00033978968956461516,0.011696909916315968,0.012384963440805145,0.01209475826923695,0.0003397895287024428,0.01169690437880151,0.01238495757755454,8.321837115293122e-06,2.337932721264995e-07,8.048092473342702e-06,8.521509677656977e-06,8.321837115293122e-06,2.337932721264995e-07,8.048092473342702e-06,8.521509677656977e-06,0.08340136054421785,13.391298677405457,-29.33,18.0,0.24698900460841078,0.0012857197119870714,0.24462991488190725,0.2497200325651263,0.0006019955306461467,0.00031762910184635057,0.00020408457356499118,0.001235882380375036,0.0008701949651880309,0.0035864335441668435,7.220456225628946e-08,0.015657439091935937,-1.0822926710809173,0.0008603934918111871,-1.083626029056338,-1.0808031799258837,0.28972152444919935,1.6979613777417344,-2.47955322265625,3.32183837890625,33.77444444444444,0.018324913891634233,33.73,33.79,0.16326530612244897,0.0023116615067079556,0,1,0
0,0.011813135173831046,0.0003335320651773738,0.011008856391826794,0.012384963440805145,0.011813129581293597,0.00033353190727766714,0.01100885118004848,0.01238495757755454,8.128061595693068e-06,2.2948769568859708e-07,7.574675269028425e-06,8.521509677656977e-06,8.128061595693068e-06,2.2948769568859708e-07,7.574675269028425e-06,8.521509677656977e-06,-0.3116271186440683,12.715485183593264,-29.19,17.32,0.24662129508984185,0.0009508637684380348,0.24436175314355227,0.24748794222230472,0.0009088247579973677,0.00043383122871581254,0.0002950263925680826,0.0015374453634387757,3.097958364384256e-07,1.854635757766762e-07,1.0414583447720949e-07,6.80881923184086e-07,-1.084897410726071,0.0006670092253036386,-1.085965239380886,-1.08376424659915,-0.03655104719971309,1.9556584148108505,-2.813720703125,3.5430908203125,33.80157894736842,0.00987455949436666,33.79,33.81,0.16271186440677965,-0.0001403508771930044,0,1,0
0,0.011804564549399316,0.0002860171309355413,0.011008856391826794,0.012384963440805145,0.011804558960919352,0.0002860169955302055,0.01100885118004848,0.01238495757755454,8.122164552929272e-06,1.967949086722888e-07,7.574675269028425e-06,8.521509677656977e-06,8.122164552929272e-06,1.967949086722888e-07,7.574675269028425e-06,8.521509677656977e-06,0.551457627118644,13.066687995182972,-29.05,18.49,0.24605079207764946,0.0008007175904739279,0.2450583238706669,0.24754369898379283,0.00011359365058917056,6.635400344282167e-05,3.6648473047043626e-05,0.0002607770035225576,4.205123466265797e-06,1.4073383184359682e-05,1.0865070138423374e-07,6.177755126869069e-05,-1.0870707719728363,0.0006178364746002994,-1.088115974595565,-1.0860791162576193,-0.013216393281686317,1.7526669040269844,-2.72369384765625,3.021240234375,33.833333333333336,0.011055415967851394,33.81,33.87,0.16271186440677965,0.0015479876160992398,0,1,0
0,0.011767119459631204,0.0002371932898569557,0.011008856391826794,0.012384963440805145,0.011767113888878373,0.00023719317756565038,0.01100885118004848,0.01238495757755454,8.096400351333934e-06,1.6320152454644065e-07,7.574675269028425e-06,8.521509677656977e-06,8.096400351333934e-06,1.6320152454644065e-07,7.574675269028425e-06,8.521509677656977e-06,-0.3090816326530613,14.015859682016988,-31.99,17.52,0.24498444223403248,0.0008774578897709294,0.24276669359973913,0.24652854662637824,0.00035947959546845385,0.0005591524631404835,8.53924714264457e-06,0.0015014405303102355,0.0009073941980283517,0.0033293206912951997,1.2593830296604887e-07,0.014530796578655183,-1.089633911997949,0.000911972120494772,-1.0912490892194193,-1.088252325580009,0.06893006506983755,1.709406498991408,-2.55584716796875,3.09906005859375,33.874444444444435,0.023147407395553453,33.84,33.91,0.16326530612244897,0.003508771929824428,0,1,0
0,0.011720154967818995,0.000270243093904528,0.011008856391826794,0.012384963440805145,0.011720149419299948,0.0002702429659668883,0.01100885118004848,0.01238495757755454,8.064086297812757e-06,1.8594153717402395e-07,7.574675269028425e-06,8.521509677656977e-06,8.064086297812757e-06,1.8594153717402395e-07,7.574675269028425e-06,8.521509677656977e-06,-0.28122033898305066,13.101536662451181,-29.67,16.57,0.2439939505597175,0.0013610568314185135,0.24148303207251298,0.24604963595350673,0.0007103205096191234,0.00040065302886741524,0.00020601893948578282,0.0014595938136148902,1.5925408825184199e-07,1.221432321832237e-07,6.709865232358558e-08,4.4504876102469115e-07,-1.0940275809402913,0.001687604595074584,-1.0969999523911955,-1.0914781894935002,-0.04949072750271402,1.6019505988303593,-2.4200439453125,2.99530029296875,33.91631578947367,0.015963948303266456,33.89,33.93,0.16271186440677965,0.0024912280701755037,0,1,0
0,0.014542736738692965,0.007624186028930346,0.010320802867337619,0.0460995861407747,0.014542729853916091,0.007624182419512073,0.010320797981295449,0.046099564316453005,1.000617179458814e-05,5.245843101621897e-06,7.101258064714148e-06,3.1718952689056526e-05,1.000617179458814e-05,5.245843101621897e-06,7.101258064714148e-06,3.1718952689056526e-05,0.08237288135593189,13.984859505421685,-31.8,18.24,0.2420882532577746,0.0011420196974473002,0.24018503048225429,0.2445482534502737,0.0011332291853570597,0.0013308092345070683,5.945206134400233e-05,0.0038806538373217193,0.003418806390720423,0.0096619998493533,2.4855306252980283e-07,0.030828404779294133,-1.1003997266244552,0.0017744496758113017,-1.1031098793492649,-1.097371601612791,0.27472306363078847,1.6178908525745737,-3.52020263671875,3.07769775390625,33.94777777777778,0.0147405546238017,33.93,33.97,0.13559322033898305,0.0013209494324043368,0,1,0
0,0.021152996867741514,0.012104955145826058,0.0006880535244891746,0.06054871015504737,0.021069304707761683,0.012250022542885666,-0.0034402659937651497,0.06054868149026664,1.4496802499677716e-05,8.428667195429213e-06,-2.3670860215713828e-06,4.166071397965634e-05,1.4496802499677716e-05,8.428667195429213e-06,-2.3670860215713828e-06,4.166071397965634e-05,-2.1474915254237277,86.07444887005566,-382.5,175.56,0.24910727200463045,0.006880887900581347,0.24272801556107945,0.26618301975035136,0.028284590300779268,0.01890592334086355,0.004566420798261564,0.05463533463607508,0.03481689198849269,0.11728711425229901,5.772949851490239e-08,0.5222288643477413,-1.104304787369643,0.0003987233506458534,-1.1047291408947042,-1.103355274868727,-0.866999756313731,2.5875309980560712,-5.69000244140625,3.50189208984375,33.9978947368421,0.01988888802914917,33.97,34.03,0.08135593220338982,0.0027719298245614506,0,1,0
0,0.018741267428943238,0.008200020475317598,0.003440267622445873,0.05091596081219893,0.01874125855651109,0.008200016593289585,0.0034402659937651497,0.05091593670772422,1.2894982898465057e-05,5.6420476468408206e-06,2.3670860215713828e-06,3.5032873119256466e-05,1.2894982898465057e-05,5.6420476468408206e-06,2.3670860215713828e-06,3.5032873119256466e-05,-1.1962244897959213,86.41665553649291,-203.65,215.13,0.2578889785900578,0.011196958913546754,0.24608366989255223,0.28571947401934306,0.055392173285862184,0.019705835260727653,0.028293278893814465,0.0841720476560526,0.04538547307357993,0.1692206150793762,1.8452821937131603e-08,0.7397908345167603,-1.1008924620336082,0.0019275900592054215,-1.1037354023252814,-1.0975342276133775,1.5652805640738892,2.5932058313841084,-2.5543212890625,5.438232421875,34.04833333333334,0.01833333333333306,34.0,34.07,0.16326530612244897,0.002549019607843232,0,1,0
0,0.01817959108242147,0.006794304227317625,0.013073016965294318,0.044035425567307176,0.01817958247589638,0.006794301010779395,0.01307301077630757,0.04403540472019392,1.2508519874535046e-05,4.674840543757707e-06,8.994926881971256e-06,3.02987010761137e-05,1.2508519874535046e-05,4.674840543757707e-06,8.994926881971256e-06,3.02987010761137e-05,13.07,30.41122655104498,-61.22,125.09,0.2552743312449915,0.0022731701003021604,0.25191193432709597,0.258416277092814,0.04081403736135197,0.0058673183707175815,0.03178234813832222,0.05053653437808943,0.041705252776888,0.1003052392576756,2.5697329097962296e-07,0.3611183491411748,-1.093931754577143,0.0017741681785662668,-1.097108484760456,-1.0914231641955827,-0.960269730319675,1.0061732992187606,-3.18756103515625,2.00958251953125,34.085555555555565,0.014229164972073187,34.07,34.11,0.02711864406779661,0.00251805985552122,0,1,0
0,0.01167831387511356,0.006282201271666022,0.0,0.022017712783653588,0.011678308346402775,0.006282198297565972,0.0,0.02201770236009696,8.035297413766636e-06,4.322486633841105e-06,0.0,1.514935053805685e-05,8.035297413766636e-06,4.322486633841105e-06,0.0,1.514935053805685e-05,-9.185491525423739,86.08357393074834,-194.71,209.57,0.25844323494971905,0.0022981354145113937,0.2542928590256876,0.2626462935208627,0.047186135472276465,0.006954161470040619,0.03670617759757629,0.058821642867533434,0.020868524846136577,0.057317282790409645,5.184836640026447e-07,0.20646455718096013,-1.0914017491308803,0.0005970200119821141,-1.092855015165955,-1.090861120901384,0.1816936521317172,1.8817862427121013,-2.33612060546875,3.82537841796875,34.11842105263158,0.013480261552490562,34.11,34.15,0.08135593220338982,0.0002807017543857969,0,1,0
0,0.01160329719189567,0.011030085851637915,0.0,0.0488518002387314,0.011350537462422438,0.011290011348946286,-0.0034402659937651497,0.04885177711146513,7.809773608585856e-06,7.768128422600497e-06,-2.3670860215713828e-06,3.3612621506313634e-05,7.809773608585856e-06,7.768128422600497e-06,-2.3670860215713828e-06,3.3612621506313634e-05,0.4315593220338946,47.93553992683288,-90.65,132.09,0.2590384543190431,0.013833891996405123,0.24922685058196034,0.30061845762623796,0.04970422136515526,0.029843599925145244,0.02563762510230779,0.12048566504130093,0.07898360576303583,0.2346528985341958,1.8400243995131405e-08,1.0235782841321392,-1.0972715807912432,0.002834705573988211,-1.1024184443187375,-1.0931841778609717,-0.1975627334599461,1.7348747913621272,-2.38494873046875,3.17840576171875,34.12777777777777,0.01749779527558153,34.11,34.15,0.08135593220338982,0.0014860681114551647,0,1,0
0,0.01941059840854835,0.012594401417859138,0.0,0.0488518002387314,0.019270170199089966,0.012808212647546112,-0.0034402659937651497,0.04885177711146513,1.3258902245999159e-05,8.812731682453113e-06,-2.3670860215713828e-06,3.3612621506313634e-05,1.3258902245999159e-05,8.812731682453113e-06,-2.3670860215713828e-06,3.3612621506313634e-05,-2.314625850340129,106.66099465110032,-290.75,232.52,0.25778849619683014,0.0079889481047233,0.24873123844868078,0.27919954578278733,0.07167784219422024,0.022586960233033405,0.04550529716894185,0.11910042325888728,0.03466554329261352,0.09118431266744663,2.150049827065459e-08,0.37364719098693655,-1.1108624961756588,0.004829158936490309,-1.1188495785006982,-1.1031682751920628,0.1393825324006783,2.5190721655881445,-3.19366455078125,4.72259521484375,34.14157894736841,0.009874559494363151,34.13,34.15,0.10884353741496598,0.0015438596491224997,0,1,0
0,0.009855901837277359,0.006149050341109384,0.0006880535244891746,0.021329659259164413,0.009855897171327208,0.006149047430045221,0.00068805319875303,0.02132964916134393,6.781381575312616e-06,4.230871753526709e-06,4.734172043142766e-07,1.4675933333742575e-05,6.781381575312616e-06,4.230871753526709e-06,4.734172043142766e-07,1.4675933333742575e-05,0.5248135593220309,102.90349863375364,-146.93,405.17,0.25197309833658915,0.001192457627077162,0.24958622025828325,0.2548143580288453,0.05920703336102209,0.0021142870952949133,0.054425201098682874,0.06250328808595138,0.04135766717261618,0.062238452419077224,8.446458421573766e-07,0.22416219616307265,-1.12553236041311,0.0031287251835847504,-1.1296952400593017,-1.119702727433352,0.3157125361173596,1.4666147338926883,-2.11639404296875,3.37982177734375,34.15277777777776,0.012385276005335287,34.13,34.16,0.08135593220338982,0.001661506707946006,0,1,0
0,0.017552385828805465,0.012090314398531242,0.003440267622445873,0.04953985376322058,0.01755237751920995,0.012090308674772463,0.0034402659937651497,0.04953983031021816,1.2076969497813177e-05,8.318775557588707e-06,2.3670860215713828e-06,3.408603871062791e-05,1.2076969497813177e-05,8.318775557588707e-06,2.3670860215713828e-06,3.408603871062791e-05,5.892881355932209,64.50966052081925,-130.32,240.98,0.25299758131810185,0.009076629088542336,0.24141974863912197,0.2779756431021592,0.06469717159761083,0.011456542950223378,0.04962472337100776,0.08512394506755006,0.04527150246489059,0.12939584570914078,1.9187121669261842e-08,0.553427912084441,-1.1278568080433242,0.0023234470228019662,-1.1300997492733766,-1.1228597659393318,0.08235486506232553,1.8061871129793836,-2.581787109375,3.17230224609375,34.16842105263156,0.009874559494366657,34.16,34.18,0.16271186440677965,0.00042105263157901315,0,1,0
0,0.015346383002288933,0.006726632745420766,0.003440267622445873,0.028898248028545334,0.015346375737052364,0.006726629560919359,0.0034402659937651497,0.02889823434762726,1.0559122915144771e-05,4.628278986217256e-06,2.3670860215713828e-06,1.9883522581199616e-05,1.0559122915144771e-05,4.628278986217256e-06,2.3670860215713828e-06,1.9883522581199616e-05,0.5604067796610174,61.027649886604564,-128.25,124.0,0.24993838377638836,0.0020027186014994936,0.2437460867584256,0.25282742649663736,0.041902173078612666,0.007857219937345056,0.02887454016566672,0.060400623141683644,0.019383111643511846,0.04139670134424302,7.28287472551159e-08,0.15940458523249168,-1.1133275249247567,0.0055058671414625285,-1.1219893082577157,-1.104131009473109,0.5307681953318919,2.5338192755219207,-3.41033935546875,4.00848388671875,34.19999999999999,0.014142135623731487,34.18,34.21,0.05423728813559322,-0.0002476780185758608,0,1,0
0,0.014818894275732802,0.00044880443386332013,0.013761070489783492,0.016513284587740193,0.014818887260218318,0.0004488042213917309,0.013761063975060599,0.01651327677007272,1.0196182781353765e-05,3.088011801424436e-07,9.468344086285531e-06,1.1362012903542639e-05,1.0196182781353765e-05,3.088011801424436e-07,9.468344086285531e-06,1.1362012903542639e-05,-4.677448979591834,53.946277969454016,-216.57,85.18,0.24938857068021095,0.001802359390064073,0.24587147653681765,0.25234521630570145,0.02039443937905153,0.002405513370178546,0.01655351983286855,0.02656553419363009,0.011203649553165298,0.030666935816639894,1.7673493413195018e-07,0.11309391731200175,-1.0950333546991062,0.004522843644815998,-1.1030482316855428,-1.0883261937742224,0.09175956101334716,1.7799818657889765,-2.685546875,3.09295654296875,34.21111111111111,0.01369869778437457,34.18,34.23,0.16326530612244897,0.0021465428276571867,0,1,0
0,0.014332108108747283,0.0018166537495593108,0.010320802867337619,0.015825231063251018,0.014332101323685552,0.0018166528895247815,0.010320797981295449,0.01582522357131969,9.861248160614373e-06,1.2499538316614608e-06,7.101258064714148e-06,1.088859569922836e-05,9.861248160614373e-06,1.2499538316614608e-06,7.101258064714148e-06,1.088859569922836e-05,-1.5999661016949156,31.595884762056528,-122.32,55.7,0.2487853139888978,0.0014425771669886959,0.24590386191718186,0.25114646159202475,0.00674925558552343,0.004108386276307958,0.001852342024159362,0.01524744066884938,2.0522007557382508e-07,1.6880661464805584e-07,7.1653691563478e-08,7.687083188878674e-07,-1.0837344528623347,0.002108457938656151,-1.0877236934467043,-1.0807989972310565,-0.0958861547427497,1.5590065517836664,-2.557373046875,2.82135009765625,34.231052631578955,0.012093816097974735,34.21,34.25,0.16271186440677965,-0.0002105263157892074,0,1,0
0,0.011543492576396069,0.0004293984569004056,0.010320802867337619,0.013073016965294318,0.01154348711151202,0.0004293982536159341,0.010320797981295449,0.01307301077630757,7.942533231840174e-06,2.9544884193940797e-07,7.101258064714148e-06,8.994926881971256e-06,7.942533231840174e-06,2.9544884193940797e-07,7.101258064714148e-06,8.994926881971256e-06,-0.3039999999999998,20.862717641520977,-66.79,32.43,0.24852850814454067,0.0013934524014150831,0.24584324895271362,0.25163309221365227,0.0021688641836316576,0.001707017907738586,0.0005309035758659436,0.00502418082515812,0.0029019433287556973,0.008618511813099245,9.983816952677249e-08,0.03400709705466898,-1.0794068372021273,0.0006024828540429261,-1.08058908345469,-1.0786018632796268,0.22028332129421346,1.6675440841039813,-2.3040771484375,3.32794189453125,34.21,0.0,34.21,34.21,0.16271186440677965,0.0,0,1,0
0,0.010756102035891996,0.00303606285316521,0.0027522140979566985,0.018577445161207715,0.01075609694377185,0.0030360614158418437,0.00275221279501212,0.018577436366331808,7.400766908259914e-06,2.0889717687806327e-06,1.8936688172571063e-06,1.2782264516485466e-05,7.400766908259914e-06,2.0889717687806327e-06,1.8936688172571063e-06,1.2782264516485466e-05,1.5161694915254218,52.30794724502407,-110.44,237.69,0.2493538050987029,0.0009939239765204408,0.24696131989227002,0.2507128860584772,0.002916675306563961,0.0007195257185311125,0.00171552426811218,0.0044430910565145115,0.0013863200381131484,0.0058800887572362116,1.2052075652052574e-07,0.026333423764742757,-1.078212859604221,0.00017365081438461754,-1.0785455038587826,-1.0779533888511683,-0.0038606061533130428,1.9412915361833067,-2.5177001953125,4.18548583984375,34.19315789473682,0.020787808061192636,34.16,34.21,0.05423728813559322,-0.0028070175438598137,0,1,0
0,0.006786922520471449,0.0032288927178960878,0.0,0.014449124014272667,0.006730751699366378,0.003344397338721606,-0.00206415959625909,0.01444911717381363,4.631115236761426e-06,2.3011232868085208e-06,-1.4202516129428298e-06,9.941761290599808e-06,4.631115236761426e-06,2.3011232868085208e-06,-1.4202516129428298e-06,9.941761290599808e-06,-0.9942176870748275,88.33820195356016,-233.24,205.4,0.2498118616263713,0.0015750499568899924,0.2475008984559588,0.2529696538505275,0.004460739109661456,0.0016329895063247185,0.0019301383123034902,0.006743886073367955,0.003476075796476198,0.014198360413103614,6.956080385311925e-08,0.0620154718372218,-1.0775204498829496,0.0003037519378565009,-1.0779242901465724,-1.0769249835642227,0.009806517040167493,2.05032032934353,-2.87017822265625,4.046630859375,34.17555555555555,0.00831479419283228,34.16,34.18,0.10884353741496598,0.0004953560371517803,0,1,0
0,0.006755011966775473,0.0008908042383700835,0.005504428195913397,0.012384963440805145,0.00675500876883885,0.0008908038166483312,0.00550442559002424,0.01238495757755454,4.64780539100436e-06,6.12920415506291e-07,3.7873376345142126e-06,8.521509677656977e-06,4.64780539100436e-06,6.12920415506291e-07,3.7873376345142126e-06,8.521509677656977e-06,0.127118644067795,64.79792215885145,-268.19,98.32,0.24936343865809873,0.0007973435806525695,0.24745112135129024,0.250606153191079,0.0016718724124117526,0.00038604519566819606,0.001069173704712169,0.0026192832000986963,0.0007075295112149126,0.0029952693378951876,9.740010111641828e-08,0.01341537083456561,-1.0759509400601202,0.000489982906223458,-1.076824869374366,-1.0752900223779203,-0.07880000263526481,1.707360036057871,-2.49176025390625,3.1036376953125,34.155789473684194,0.009355994123490169,34.15,34.18,0.08135593220338982,-0.00028070175438612096,0,1,0
0,0.0070349962401852345,0.00035708070323503673,0.006192481720402572,0.007568588769380921,0.007034992909699331,0.0003570805341870087,0.00619247878877727,0.00756858518628333,4.84044937472353e-06,2.45690403759812e-07,4.260754838828489e-06,5.2075892474570424e-06,4.84044937472353e-06,2.45690403759812e-07,4.260754838828489e-06,5.2075892474570424e-06,1.0049491525423724,17.315851753424287,-39.02,32.52,0.24894351938501405,0.0013773824468221584,0.24550715829194236,0.25070684863904585,0.0004365926886565979,0.0002415089127324608,0.00014887172751900727,0.0009555733238147529,0.0016405632922378613,0.006483990393196208,6.596770545097552e-08,0.02835180604630084,-1.0759087199519408,0.0006711293297128874,-1.077395219716852,-1.0752605274752098,-0.060699017862337105,1.6577667929239188,-2.43682861328125,3.0364990234375,34.14444444444444,0.01342560663732463,34.13,34.16,0.16271186440677965,-0.0006604747162021389,0,1,0
0,0.008336213109627347,0.002250777749360246,0.005504428195913397,0.020641605734675238,0.008336209163123444,0.0022507766838040927,0.00550442559002424,0.020641595962590898,5.735755380161408e-06,1.5486540969701435e-06,3.7873376345142126e-06,1.4202516129428297e-05,5.735755380161408e-06,1.5486540969701435e-06,3.7873376345142126e-06,1.4202516129428297e-05,5.275748299319727,32.82888244213061,-48.57,157.12,0.24832116329068046,0.0009098609027242953,0.2464586628021079,0.2495980641967121,0.0026032949229748917,0.0005403783724056158,0.0013634739978954503,0.0035034442202186897,0.0018889449877743237,0.004509627689643303,7.045967025595679e-07,0.018014494201078986,-1.0813772068284655,0.0024363931256453047,-1.0855838319251305,-1.0777107896023317,0.10313739255995076,2.0928666050535054,-3.216552734375,3.70635986328125,34.13611111111111,0.010076865081785244,34.13,34.16,0.16326530612244897,-0.001517027863776788,0,1,0
0,0.02338452181203071,0.008342583892851708,0.012384963440805145,0.04678763966526387,0.02338451074140367,0.00834257994333177,0.01238495757755454,0.04678761751520604,1.6089787416897396e-05,5.7401388158622924e-06,8.521509677656977e-06,3.219236989337081e-05,1.6089787416897396e-05,5.7401388158622924e-06,8.521509677656977e-06,3.219236989337081e-05,0.7244067796610163,153.2908321456385,-467.8,320.78,0.24607119624743967,0.0035737636038978234,0.23987123564448656,0.2538016624152614,0.0043102094447897135,0.0037906275041358854,0.0010472289216563345,0.01210060805274756,0.006653638047317123,0.028228355619898723,7.0038753581525e-08,0.12641640812908056,-1.0904327861049363,0.0024500230943437016,-1.0940251652076425,-1.0861138961121446,0.11633122825149271,2.0032661293077996,-2.68707275390625,4.30755615234375,34.11736842105264,0.00964752777885591,34.11,34.13,0.10847457627118644,-0.0009122807017545285,0,1,0
0,0.013143226508609536,0.007347600064635639,0.0006880535244891746,0.02476992688161029,0.012890466050107787,0.0077824996049060905,-0.00412831919251818,0.02476991515510908,8.869326399194008e-06,5.354773747449831e-06,-2.8405032258856597e-06,1.7043019355313955e-05,8.869326399194008e-06,5.354773747449831e-06,-2.8405032258856597e-06,1.7043019355313955e-05,-6.146203389830511,54.416743028749316,-157.34,193.88,0.24681258512706292,0.0018819590321486302,0.24216441626061025,0.2489229862761347,0.011109236039049376,0.0025997722703923506,0.006845931828120702,0.015029130434825363,0.007004197834727751,0.020572336490205016,1.0876982003971136e-07,0.07967982401151404,-1.0949931725117823,0.0002974299241671093,-1.0953145475682544,-1.094284568474821,0.12599271607998178,1.6345957760296776,-2.45819091796875,3.29132080078125,34.12333333333333,0.024494897427829922,34.09,34.16,0.08135593220338982,0.004045407636738688,0,1,0
0,0.02562069576662059,0.0020049850706891333,0.016513284587740193,0.026834087455077812,0.025620683637350955,0.0020049841214953732,0.01651327677007272,0.02683407475136817,1.7628393330918767e-05,1.3795357382439289e-06,1.1362012903542639e-05,1.8463270968256787e-05,1.7628393330918767e-05,1.3795357382439289e-06,1.1362012903542639e-05,1.8463270968256787e-05,0.3296949152542417,39.46751200639227,-122.01,79.57,0.24625741701722828,0.0010294514890416022,0.2440827683178001,0.247597027398347,0.007107350085026874,0.0014420386988875367,0.004784868447706358,0.009280481864939946,0.0037622708060655423,0.012070582710400755,1.3651156297034284e-07,0.05175091938435189,-1.0924946945763667,0.001270584624853372,-1.0944591462785738,-1.090378540075641,0.020982254823443316,1.731191670313405,-2.435302734375,3.08685302734375,34.1478947368421,0.006137844099835939,34.13,34.15,0.16271186440677965,0.0005964912280700568,0,1,0
0,0.026403468922744498,0.0007789849990830432,0.021329659259164413,0.026834087455077812,0.02640345642289686,0.0007789846302984041,0.02132964916134393,0.02683407475136817,1.8166982649910435e-05,5.359828666562636e-07,1.4675933333742575e-05,1.8463270968256787e-05,1.8166982649910435e-05,5.359828666562636e-07,1.4675933333742575e-05,1.8463270968256787e-05,0.3492176870748298,19.5488352663871,-40.52,29.64,0.24577634655084857,0.0009521159034324042,0.2440319396371609,0.24724831744228984,0.0020022974016501434,0.0011641209466163797,0.0005951682911260048,0.004386573653625851,3.4719032505546667e-07,5.454898865607155e-07,7.53477627998822e-08,2.377154407331994e-06,-1.0889070920715298,0.0006101689968192307,-1.0901593526328757,-1.0882146955429612,0.052534912715183,1.4782865679716948,-2.36358642578125,2.740478515625,34.15222222222221,0.004157397096414665,34.15,34.16,0.16326530612244897,-0.00033023735810106946,0,1,0
